staircase.thisTrialN,staircase.stepSize,staircase.intensity,thisRow.t,notes,trial.started,Fixation.started,grating.started,key_resp.started,Fixation.stopped,grating.stopped,trial.stopped,corrAns,tilt,key_resp.corr,staircase.response,key_resp.rt,participant,session,date,expName,psychopyVersion,frameRate,expStart,
0,2,10.0,0.06391339999390766,,0.037566899962257594,0.06391339999390766,0.5215064999647439,0.5215064999647439,0.5732895999681205,0.8375090999761596,2.8943158999900334,right,10.0,1,1,2.2810985000105575,142502,001,2024-09-12_21h14.44.880,Adaptive Staircase Experiment,2024.1.5,None,2024-09-12 21h14.51.704203 +0530,
1,2,8.0,2.902052999997977,,2.8944697999977507,2.902052999997977,3.401936399983242,3.401936399983242,3.401936399983242,3.7017622999846935,4.018767200002912,right,8.0,1,1,0.6025873000035062,142502,001,2024-09-12_21h14.44.880,Adaptive Staircase Experiment,2024.1.5,None,2024-09-12 21h14.51.704203 +0530,
2,2,6.0,4.03433519997634,,4.018861799966544,4.03433519997634,4.533659699955024,4.533659699955024,4.533659699955024,4.8342858999967575,5.03476429998409,left,-6.0,1,1,0.4924672999768518,142502,001,2024-09-12_21h14.44.880,Adaptive Staircase Experiment,2024.1.5,None,2024-09-12 21h14.51.704203 +0530,
3,2,4.0,5.0502348999725655,,5.03485549998004,5.0502348999725655,5.549343699996825,5.549343699996825,5.549343699996825,5.849767899955623,6.150667099980637,right,4.0,1,1,0.5973710999824107,142502,001,2024-09-12_21h14.44.880,Adaptive Staircase Experiment,2024.1.5,None,2024-09-12 21h14.51.704203 +0530,
4,2,2.0,6.166651599982288,,6.150788399972953,6.166651599982288,6.665574999991804,6.665574999991804,6.682173699955456,6.9650675999582745,7.831897099968046,left,-2.0,1,1,1.1643765000044368,142502,001,2024-09-12_21h14.44.880,Adaptive Staircase Experiment,2024.1.5,None,2024-09-12 21h14.51.704203 +0530,
5,2,1.0,7.847464499995112,,7.832021699985489,7.847464499995112,8.347445699968375,8.347445699968375,8.347445699968375,8.646769999992102,9.047524900001008,left,-1.0,1,1,0.6900790000217967,142502,001,2024-09-12_21h14.44.880,Adaptive Staircase Experiment,2024.1.5,None,2024-09-12 21h14.51.704203 +0530,
6,2,1.0,9.062856899981853,,9.047618699958548,9.062856899981853,9.562830899958499,9.562830899958499,9.562830899958499,9.863280299992766,10.795884199964348,right,1.0,1,1,1.2280595000484027,142502,001,2024-09-12_21h14.44.880,Adaptive Staircase Experiment,2024.1.5,None,2024-09-12 21h14.51.704203 +0530,
7,2,1.0,10.811530999955721,,10.795978899986949,10.811530999955721,11.311257499968633,11.311257499968633,11.311257499968633,11.61046419997001,12.011660099960864,right,1.0,1,1,0.6945358999655582,142502,001,2024-09-12_21h14.44.880,Adaptive Staircase Experiment,2024.1.5,None,2024-09-12 21h14.51.704203 +0530,
8,2,1.0,12.026498499966692,,12.01175519998651,12.026498499966692,12.526733400009107,12.526733400009107,12.526733400009107,12.825979199958965,12.944219400000293,right,1.0,1,1,0.41204050002852455,142502,001,2024-09-12_21h14.44.880,Adaptive Staircase Experiment,2024.1.5,None,2024-09-12 21h14.51.704203 +0530,
9,2,1.0,12.95939889998408,,12.944313199957833,12.95939889998408,13.459169499983545,13.459169499983545,13.459169499983545,13.758208499988541,13.893361900001764,right,1.0,1,1,0.417772899963893,142502,001,2024-09-12_21h14.44.880,Adaptive Staircase Experiment,2024.1.5,None,2024-09-12 21h14.51.704203 +0530,
10,2,1.0,13.908487399981823,,13.89345469995169,13.908487399981823,14.408078000007663,14.408078000007663,14.408078000007663,14.707870999991428,14.892256399965845,right,1.0,1,1,0.4750323000480421,142502,001,2024-09-12_21h14.44.880,Adaptive Staircase Experiment,2024.1.5,None,2024-09-12 21h14.51.704203 +0530,
11,2,1.0,14.907569099974353,,14.89234799996484,14.907569099974353,15.406844899989665,15.406844899989665,15.406844899989665,15.706762899993919,16.123665699968114,left,-1.0,1,1,0.7103748000226915,142502,001,2024-09-12_21h14.44.880,Adaptive Staircase Experiment,2024.1.5,None,2024-09-12 21h14.51.704203 +0530,
12,1,1.0,16.139690999989398,,16.123757799970917,16.139690999989398,16.639506299979985,16.639506299979985,16.639506299979985,16.939324799983297,17.056504799984396,left,-1.0,0,0,0.4027958999504335,142502,001,2024-09-12_21h14.44.880,Adaptive Staircase Experiment,2024.1.5,None,2024-09-12 21h14.51.704203 +0530,
13,1,2.0,17.07210039999336,,17.056600699957926,17.07210039999336,17.572453400003724,17.572453400003724,17.572453400003724,17.87197669997113,18.005832399998326,right,2.0,1,1,0.4180725999758579,142502,001,2024-09-12_21h14.44.880,Adaptive Staircase Experiment,2024.1.5,None,2024-09-12 21h14.51.704203 +0530,
14,1,2.0,18.021393299975898,,18.005923699995037,18.021393299975898,18.520895899971947,18.520895899971947,18.520895899971947,18.820720299961977,19.021829599980265,right,2.0,1,1,0.4891453000018373,142502,001,2024-09-12_21h14.44.880,Adaptive Staircase Experiment,2024.1.5,None,2024-09-12 21h14.51.704203 +0530,
15,1,2.0,19.03726579999784,,19.021940300008282,19.03726579999784,19.536534899962135,19.536534899962135,19.536534899962135,19.836719699960668,20.08701789996121,left,-2.0,1,1,0.5418683000025339,142502,001,2024-09-12_21h14.44.880,Adaptive Staircase Experiment,2024.1.5,None,2024-09-12 21h14.51.704203 +0530,
16,0.5,1.0,20.10331400000723,,20.087115000002086,20.10331400000723,20.6025929999887,20.6025929999887,20.61914369999431,20.902413500007242,21.636720299953595,left,-1.0,0,0,1.0283041999791749,142502,001,2024-09-12_21h14.44.880,Adaptive Staircase Experiment,2024.1.5,None,2024-09-12 21h14.51.704203 +0530,
17,0.5,1.5,21.6510645999806,,21.63683759997366,21.6510645999806,22.151438699977007,22.151438699977007,22.151438699977007,22.4509565999615,22.78453669999726,right,1.5,1,1,0.6197010999894701,142502,001,2024-09-12_21h14.44.880,Adaptive Staircase Experiment,2024.1.5,None,2024-09-12 21h14.51.704203 +0530,
18,0.5,1.5,22.800231800007168,,22.78462849999778,22.800231800007168,23.29978389997268,23.29978389997268,23.29978389997268,23.60004619997926,23.834692500007804,left,-1.5,1,1,0.5323653999948874,142502,001,2024-09-12_21h14.44.880,Adaptive Staircase Experiment,2024.1.5,None,2024-09-12 21h14.51.704203 +0530,
19,0.5,1.5,23.849855199980084,,23.83478259999538,23.849855199980084,24.34986519999802,24.34986519999802,24.34986519999802,24.665232400002424,24.916101199982222,right,1.5,1,1,0.5568463999661617,142502,001,2024-09-12_21h14.44.880,Adaptive Staircase Experiment,2024.1.5,None,2024-09-12 21h14.51.704203 +0530,
20,0.5,1.0,24.93175369995879,,24.916196200007107,24.93175369995879,25.41531730000861,25.41531730000861,25.431505499989726,25.714266399969347,26.248220999957994,right,1.0,0,0,0.8261902999947779,142502,001,2024-09-12_21h14.44.880,Adaptive Staircase Experiment,2024.1.5,None,2024-09-12 21h14.51.704203 +0530,
21,0.5,1.5,26.264086899987888,,26.248319200007245,26.264086899987888,26.747754299954977,26.747754299954977,26.76373909995891,27.06276959995739,27.48145919997478,right,1.5,1,1,0.7161427999963053,142502,001,2024-09-12_21h14.44.880,Adaptive Staircase Experiment,2024.1.5,None,2024-09-12 21h14.51.704203 +0530,
22,0.5,1.5,27.496604099986143,,27.481550099968445,27.496604099986143,27.99544899998,27.99544899998,27.99544899998,28.29527879995294,28.579729999997653,right,1.5,1,1,0.57751020003343,142502,001,2024-09-12_21h14.44.880,Adaptive Staircase Experiment,2024.1.5,None,2024-09-12 21h14.51.704203 +0530,
23,0.5,1.5,28.59483580000233,,28.579860500001814,28.59483580000233,29.09505139995599,29.09505139995599,29.09505139995599,29.395149699994363,29.54570129996864,left,-1.5,1,1,0.445956900017336,142502,001,2024-09-12_21h14.44.880,Adaptive Staircase Experiment,2024.1.5,None,2024-09-12 21h14.51.704203 +0530,
24,0.5,1.0,29.56137069995748,,29.54582489997847,29.56137069995748,30.043598799966276,30.043598799966276,30.077488799986895,30.343376899953,30.661329399968963,left,-1.0,1,1,0.6138931000023149,142502,001,2024-09-12_21h14.44.880,Adaptive Staircase Experiment,2024.1.5,None,2024-09-12 21h14.51.704203 +0530,
25,0.5,1.0,30.676686099963263,,30.661443899967708,30.676686099963263,31.17609419999644,31.17609419999644,31.17609419999644,31.47566499997629,31.89368119998835,left,-1.0,1,1,0.7120032000239007,142502,001,2024-09-12_21h14.44.880,Adaptive Staircase Experiment,2024.1.5,None,2024-09-12 21h14.51.704203 +0530,
26,0.5,1.0,31.90868860000046,,31.89379249996273,31.90868860000046,32.408398400002625,32.408398400002625,32.408398400002625,32.70782730000792,33.44199139997363,right,1.0,0,0,1.0262428999994881,142502,001,2024-09-12_21h14.44.880,Adaptive Staircase Experiment,2024.1.5,None,2024-09-12 21h14.51.704203 +0530,
27,0.5,1.5,33.45737029996235,,33.442087800009176,33.45737029996235,33.95745459996397,33.95745459996397,33.95745459996397,34.25687359995209,34.70773649995681,right,1.5,1,1,0.7444995000259951,142502,001,2024-09-12_21h14.44.880,Adaptive Staircase Experiment,2024.1.5,None,2024-09-12 21h14.51.704203 +0530,
28,0.5,1.5,34.72349519998534,,34.7078244999866,34.72349519998534,35.22267359995749,35.22267359995749,35.23931829998037,35.52163679996738,35.9891872999724,right,1.5,1,1,0.7612916000070982,142502,001,2024-09-12_21h14.44.880,Adaptive Staircase Experiment,2024.1.5,None,2024-09-12 21h14.51.704203 +0530,
29,0.5,1.5,36.00517799996305,,35.98927779996302,36.00517799996305,36.487934199976735,36.487934199976735,36.50515699997777,36.78774949995568,37.08884829998715,right,1.5,1,1,0.5995843000127934,142502,001,2024-09-12_21h14.44.880,Adaptive Staircase Experiment,2024.1.5,None,2024-09-12 21h14.51.704203 +0530,
30,0.5,1.0,37.104676399962045,,37.0889443999622,37.104676399962045,37.60361940000439,37.60361940000439,37.620690499956254,37.90307199995732,38.32137610000791,left,-1.0,1,1,0.707136899989564,142502,001,2024-09-12_21h14.44.880,Adaptive Staircase Experiment,2024.1.5,None,2024-09-12 21h14.51.704203 +0530,
31,0.5,1.0,38.33692380000139,,38.32146649999777,38.33692380000139,38.835734999971464,38.835734999971464,38.835734999971464,39.13571859995136,39.569933699967805,left,-1.0,1,1,0.7284854999743402,142502,001,2024-09-12_21h14.44.880,Adaptive Staircase Experiment,2024.1.5,None,2024-09-12 21h14.51.704203 +0530,
32,0.5,1.0,39.585130899969954,,39.57002499996452,39.585130899969954,40.085108599974774,40.085108599974774,40.085108599974774,40.38466399995377,40.634894599963445,left,-1.0,1,1,0.5436677999678068,142502,001,2024-09-12_21h14.44.880,Adaptive Staircase Experiment,2024.1.5,None,2024-09-12 21h14.51.704203 +0530,
33,0.5,1.0,40.650498699978925,,40.635004199983086,40.650498699978925,41.15060569997877,41.15060569997877,41.15060569997877,41.449948699970264,42.033769199973904,left,-1.0,1,1,0.8736997999949381,142502,001,2024-09-12_21h14.44.880,Adaptive Staircase Experiment,2024.1.5,None,2024-09-12 21h14.51.704203 +0530,
34,0.5,1.0,42.04913030000171,,42.033862499985844,42.04913030000171,42.5493284999975,42.5493284999975,42.5493284999975,42.84891689999495,43.199259099958,left,-1.0,1,1,0.641046800010372,142502,001,2024-09-12_21h14.44.880,Adaptive Staircase Experiment,2024.1.5,None,2024-09-12 21h14.51.704203 +0530,
35,0.5,1.0,43.21543819998624,,43.19935179996537,43.21543819998624,43.698512999981176,43.698512999981176,43.71578019997105,43.99798559996998,44.31578999996418,right,1.0,1,1,0.6160012999898754,142502,001,2024-09-12_21h14.44.880,Adaptive Staircase Experiment,2024.1.5,None,2024-09-12 21h14.51.704203 +0530,
36,0.5,1.0,44.33051399997203,,44.31588849995751,44.33051399997203,44.83060960000148,44.83060960000148,44.83060960000148,45.12970039999345,45.7803855999955,left,-1.0,0,0,0.9434676999808289,142502,001,2024-09-12_21h14.44.880,Adaptive Staircase Experiment,2024.1.5,None,2024-09-12 21h14.51.704203 +0530,
37,0.5,1.5,45.79606399999466,,45.78050619998248,45.79606399999466,46.2966097999597,46.2966097999597,46.2966097999597,46.61316819995409,47.02937229996314,left,-1.5,0,0,0.7216615999932401,142502,001,2024-09-12_21h14.44.880,Adaptive Staircase Experiment,2024.1.5,None,2024-09-12 21h14.51.704203 +0530,
38,0.5,2.0,47.044734800001606,,47.02946829999564,47.044734800001606,47.54481190000661,47.54481190000661,47.54481190000661,47.844689499994274,48.39457889995538,right,2.0,1,1,0.8398162000230514,142502,001,2024-09-12_21h14.44.880,Adaptive Staircase Experiment,2024.1.5,None,2024-09-12 21h14.51.704203 +0530,
39,0.5,2.0,48.410494399955496,,48.39467099995818,48.410494399955496,48.90971789998002,48.90971789998002,48.90971789998002,49.21047879999969,49.42783119995147,left,-2.0,1,1,0.5167986999731511,142502,001,2024-09-12_21h14.44.880,Adaptive Staircase Experiment,2024.1.5,None,2024-09-12 21h14.51.704203 +0530,
40,0.5,2.0,49.44320089998655,,49.427953300008085,49.44320089998655,49.94227459997637,49.94227459997637,49.94227459997637,50.24202810000861,50.47608489997219,left,-2.0,1,1,0.5241141999722458,142502,001,2024-09-12_21h14.44.880,Adaptive Staircase Experiment,2024.1.5,None,2024-09-12 21h14.51.704203 +0530,
41,0.5,1.5,50.49269099999219,,50.47618130000774,50.49269099999219,50.99187480000546,50.99187480000546,51.008228399965446,51.2919222000055,51.49248049996095,right,1.5,1,1,0.4876911000465043,142502,001,2024-09-12_21h14.44.880,Adaptive Staircase Experiment,2024.1.5,None,2024-09-12 21h14.51.704203 +0530,
42,0.5,1.5,51.507537099998444,,51.49257139995461,51.507537099998444,52.00758199999109,52.00758199999109,52.00758199999109,52.307712299982086,52.49144819995854,left,-1.5,1,1,0.47412700002314523,142502,001,2024-09-12_21h14.44.880,Adaptive Staircase Experiment,2024.1.5,None,2024-09-12 21h14.51.704203 +0530,
43,0.5,1.5,52.50721519999206,,52.491539799957536,52.50721519999206,52.989335699996445,52.989335699996445,53.02293859998463,53.29002869996475,53.54024139995454,right,1.5,1,1,0.537080199981574,142502,001,2024-09-12_21h14.44.880,Adaptive Staircase Experiment,2024.1.5,None,2024-09-12 21h14.51.704203 +0530,
44,0.5,1.0,53.55556720000459,,53.54033469996648,53.55556720000459,54.056112199963536,54.056112199963536,54.056112199963536,54.354994099994656,54.95546490000561,left,-1.0,1,1,0.885929899988696,142502,001,2024-09-12_21h14.44.880,Adaptive Staircase Experiment,2024.1.5,None,2024-09-12 21h14.51.704203 +0530,
45,0.5,1.0,54.971048999985214,,54.95555539999623,54.971048999985214,55.470951099996455,55.470951099996455,55.470951099996455,55.77055839996319,55.80541849997826,left,-1.0,0,0,0.31983529997523874,142502,001,2024-09-12_21h14.44.880,Adaptive Staircase Experiment,2024.1.5,None,2024-09-12 21h14.51.704203 +0530,
46,0.5,1.5,55.820225699979346,,55.805527699994855,55.820225699979346,56.32013289997121,56.32013289997121,56.32013289997121,56.6198502999614,56.97038969997084,left,-1.5,0,0,0.6453012999845669,142502,001,2024-09-12_21h14.44.880,Adaptive Staircase Experiment,2024.1.5,None,2024-09-12 21h14.51.704203 +0530,
47,0.5,2.0,56.98614009999437,,56.970484899997246,56.98614009999437,57.48608050000621,57.48608050000621,57.48608050000621,57.78569220000645,58.01952329999767,right,2.0,1,1,0.5222753999987617,142502,001,2024-09-12_21h14.44.880,Adaptive Staircase Experiment,2024.1.5,None,2024-09-12 21h14.51.704203 +0530,
48,0.5,2.0,58.03484589996515,,58.019628099980764,58.03484589996515,58.534393499954604,58.534393499954604,58.534393499954604,58.83399939996889,59.201560899964534,left,-2.0,1,1,0.6598725999938324,142502,001,2024-09-12_21h14.44.880,Adaptive Staircase Experiment,2024.1.5,None,2024-09-12 21h14.51.704203 +0530,
49,0.5,2.0,59.21784249995835,,59.20164970000042,59.21784249995835,59.717869899992365,59.717869899992365,59.717869899992365,60.01720349997049,60.30036539997673,left,-2.0,0,0,0.5684825999778695,142502,001,2024-09-12_21h14.44.880,Adaptive Staircase Experiment,2024.1.5,None,2024-09-12 21h14.51.704203 +0530,
50,0.5,2.5,60.316151799983345,,60.30045829998562,60.316151799983345,60.79947859997628,60.79947859997628,60.816222699999344,61.099003899958916,61.33312169997953,right,2.5,1,1,0.5282022000174038,142502,001,2024-09-12_21h14.44.880,Adaptive Staircase Experiment,2024.1.5,None,2024-09-12 21h14.51.704203 +0530,
51,0.5,2.5,61.34894100000383,,61.333247800008394,61.34894100000383,61.84877489996143,61.84877489996143,61.84877489996143,62.16491140000289,62.46564859995851,left,-2.5,1,1,0.6001806000131182,142502,001,2024-09-12_21h14.44.880,Adaptive Staircase Experiment,2024.1.5,None,2024-09-12 21h14.51.704203 +0530,
52,0.5,2.5,62.48194179998245,,62.46573830000125,62.48194179998245,62.98205439996673,62.98205439996673,62.98205439996673,63.29702820000239,63.48209259996656,right,2.5,1,1,0.4985426999628544,142502,001,2024-09-12_21h14.44.880,Adaptive Staircase Experiment,2024.1.5,None,2024-09-12 21h14.51.704203 +0530,
53,0.5,2.0,63.496358199976385,,63.482219199999236,63.496358199976385,63.99688559997594,63.99688559997594,63.99688559997594,64.29665809997823,64.51387389999582,left,-2.0,1,1,0.5129890999523923,142502,001,2024-09-12_21h14.44.880,Adaptive Staircase Experiment,2024.1.5,None,2024-09-12 21h14.51.704203 +0530,
54,0.5,2.0,64.53000410000095,,64.51396459998796,64.53000410000095,65.02928429999156,65.02928429999156,65.02928429999156,65.32846039999276,65.7121728999773,right,2.0,1,1,0.6760817000176758,142502,001,2024-09-12_21h14.44.880,Adaptive Staircase Experiment,2024.1.5,None,2024-09-12 21h14.51.704203 +0530,
55,0.5,2.0,65.72884569998132,,65.71226239996031,65.72884569998132,66.21117879997473,66.21117879997473,66.24411299999338,66.51121069997316,66.84524199995212,left,-2.0,1,1,0.618538599985186,142502,001,2024-09-12_21h14.44.880,Adaptive Staircase Experiment,2024.1.5,None,2024-09-12 21h14.51.704203 +0530,
56,0.5,1.5,66.86045290000038,,66.84533479996026,66.86045290000038,67.35980969999218,67.35980969999218,67.35980969999218,67.65973670000676,67.97680469998159,left,-1.5,1,1,0.6033671000041068,142502,001,2024-09-12_21h14.44.880,Adaptive Staircase Experiment,2024.1.5,None,2024-09-12 21h14.51.704203 +0530,
57,0.5,1.5,67.99272679997375,,67.97691119997762,67.99272679997375,68.47658600000432,68.47658600000432,68.4929690999561,68.79209909995552,69.19285279995529,left,-1.5,1,1,0.7014762000180781,142502,001,2024-09-12_21h14.44.880,Adaptive Staircase Experiment,2024.1.5,None,2024-09-12 21h14.51.704203 +0530,
58,0.5,1.5,69.20885019999696,,69.19294489995809,69.20885019999696,69.70816499995999,69.70816499995999,69.72596599999815,70.00743900000816,70.54185929999221,left,-1.5,1,1,0.8315392999793403,142502,001,2024-09-12_21h14.44.880,Adaptive Staircase Experiment,2024.1.5,None,2024-09-12 21h14.51.704203 +0530,
59,0.5,1.0,70.55726460000733,,70.5419539999566,70.55726460000733,71.05685870000161,71.05685870000161,71.05685870000161,71.35648029996082,71.67365789995529,left,-1.0,1,1,0.6014349999604747,142502,001,2024-09-12_21h14.44.880,Adaptive Staircase Experiment,2024.1.5,None,2024-09-12 21h14.51.704203 +0530,
60,0.5,1.0,71.689528399962,,71.67374649998965,71.689528399962,72.1891667000018,72.1891667000018,72.1891667000018,72.48876179999206,72.67313069995726,left,-1.0,0,0,0.4759455999592319,142502,001,2024-09-12_21h14.44.880,Adaptive Staircase Experiment,2024.1.5,None,2024-09-12 21h14.51.704203 +0530,
61,0.5,1.5,72.68838469998445,,72.673226599989,72.68838469998445,73.18856989999767,73.18856989999767,73.18856989999767,73.48786589998053,73.73887719999766,right,1.5,1,1,0.5366683999891393,142502,001,2024-09-12_21h14.44.880,Adaptive Staircase Experiment,2024.1.5,None,2024-09-12 21h14.51.704203 +0530,
62,0.5,1.5,73.75438919995213,,73.73903070000233,73.75438919995213,74.25398239999777,74.25398239999777,74.25398239999777,74.5532393999747,74.88845049997326,left,-1.5,1,1,0.6313518000533804,142502,001,2024-09-12_21h14.44.880,Adaptive Staircase Experiment,2024.1.5,None,2024-09-12 21h14.51.704203 +0530,
63,0.5,1.5,74.90312709996942,,74.8885398999555,74.90312709996942,75.40279199997894,75.40279199997894,75.40279199997894,75.70260319998488,75.85392849997152,right,1.5,1,1,0.44841999997152016,142502,001,2024-09-12_21h14.44.880,Adaptive Staircase Experiment,2024.1.5,None,2024-09-12 21h14.51.704203 +0530,
64,0.5,1.0,75.86895599996205,,75.85405309998896,75.86895599996205,76.36888399999589,76.36888399999589,76.36888399999589,76.66855879995273,77.25327479996486,right,1.0,1,1,0.8811547999503091,142502,001,2024-09-12_21h14.44.880,Adaptive Staircase Experiment,2024.1.5,None,2024-09-12 21h14.51.704203 +0530,
65,0.5,1.0,77.26802620000672,,77.25338999996893,77.26802620000672,77.76745539996773,77.76745539996773,77.76745539996773,78.06710509996628,78.38413809996564,right,1.0,1,1,0.6062024999991991,142502,001,2024-09-12_21h14.44.880,Adaptive Staircase Experiment,2024.1.5,None,2024-09-12 21h14.51.704203 +0530,
66,0.5,1.0,78.40050960000372,,78.38423189998139,78.40050960000372,78.89972589997342,78.89972589997342,78.89972589997342,79.19963149999967,79.55013819999294,left,-1.0,1,1,0.6417300999746658,142502,001,2024-09-12_21h14.44.880,Adaptive Staircase Experiment,2024.1.5,None,2024-09-12 21h14.51.704203 +0530,
67,0.5,1.0,79.56633439997677,,79.55023289995734,79.56633439997677,80.06523750000633,80.06523750000633,80.06523750000633,80.3648524999735,80.64932289998978,left,-1.0,0,0,0.5707218000316061,142502,001,2024-09-12_21h14.44.880,Adaptive Staircase Experiment,2024.1.5,None,2024-09-12 21h14.51.704203 +0530,
68,0.5,1.5,80.66430539998692,,80.64943739998853,80.66430539998692,81.16440409998177,81.16440409998177,81.16440409998177,81.4644897999824,81.64814030000707,right,1.5,1,1,0.47637679998297244,142502,001,2024-09-12_21h14.44.880,Adaptive Staircase Experiment,2024.1.5,None,2024-09-12 21h14.51.704203 +0530,
69,0.5,1.5,81.66378729999997,,81.64823349996004,81.66378729999997,82.16317749995505,82.16317749995505,82.16317749995505,82.463499400008,82.73050349997357,right,1.5,1,1,0.550848999992013,142502,001,2024-09-12_21h14.44.880,Adaptive Staircase Experiment,2024.1.5,None,2024-09-12 21h14.51.704203 +0530,
70,0.5,1.5,82.74629949999508,,82.73064799996791,82.74629949999508,83.24577209999552,83.24577209999552,83.24577209999552,83.54573119996348,83.63020249997498,left,-1.5,1,1,0.3820418000104837,142502,001,2024-09-12_21h14.44.880,Adaptive Staircase Experiment,2024.1.5,None,2024-09-12 21h14.51.704203 +0530,
71,0.5,1.0,83.64519049995579,,83.63031799998134,83.64519049995579,84.14488629996777,84.14488629996777,84.14488629996777,84.44534539995948,84.7292310000048,right,1.0,1,1,0.5688529000035487,142502,001,2024-09-12_21h14.44.880,Adaptive Staircase Experiment,2024.1.5,None,2024-09-12 21h14.51.704203 +0530,
72,0.5,1.0,84.74434589996235,,84.7293231000076,84.74434589996235,85.24576879997039,85.24576879997039,85.24576879997039,85.5603341999813,86.07799179997528,right,1.0,1,1,0.8229745999560691,142502,001,2024-09-12_21h14.44.880,Adaptive Staircase Experiment,2024.1.5,None,2024-09-12 21h14.51.704203 +0530,
73,0.5,1.0,86.09351109998534,,86.07818429998588,86.09351109998534,86.59238329995424,86.59238329995424,86.60900100000435,86.89262229995802,87.1435278999852,right,1.0,1,1,0.5398416999960318,142502,001,2024-09-12_21h14.44.880,Adaptive Staircase Experiment,2024.1.5,None,2024-09-12 21h14.51.704203 +0530,
74,0.5,1.0,87.15950339997653,,87.14361939998344,87.15950339997653,87.65787539997837,87.65787539997837,87.67531600000802,87.95804840000346,88.20897749997675,left,-1.0,1,1,0.5471142999595031,142502,001,2024-09-12_21h14.44.880,Adaptive Staircase Experiment,2024.1.5,None,2024-09-12 21h14.51.704203 +0530,
75,0.5,1.0,88.22474309999961,,88.20906729996204,88.22474309999961,88.72449399996549,88.72449399996549,88.72449399996549,89.02350899996236,89.24093719996745,right,1.0,1,1,0.50955790001899,142502,001,2024-09-12_21h14.44.880,Adaptive Staircase Experiment,2024.1.5,None,2024-09-12 21h14.51.704203 +0530,
76,0.5,1.0,89.25731529999757,,89.24102699995274,89.25731529999757,89.73997709999094,89.73997709999094,89.7576970999944,90.03938489995198,90.32318429998122,right,1.0,1,1,0.5737879000371322,142502,001,2024-09-12_21h14.44.880,Adaptive Staircase Experiment,2024.1.5,None,2024-09-12 21h14.51.704203 +0530,
77,0.5,1.0,90.33873959997436,,90.32328019995475,90.33873959997436,90.83924519998254,90.83924519998254,90.83924519998254,91.13845809997292,91.40630869998131,right,1.0,1,1,0.5650859999586828,142502,001,2024-09-12_21h14.44.880,Adaptive Staircase Experiment,2024.1.5,None,2024-09-12 21h14.51.704203 +0530,
78,0.5,1.0,91.42196649999823,,91.40640310000163,91.42196649999823,91.92159119999269,91.92159119999269,91.92159119999269,92.22107369999867,92.33865109999897,left,-1.0,0,0,0.4115093000000343,142502,001,2024-09-12_21h14.44.880,Adaptive Staircase Experiment,2024.1.5,None,2024-09-12 21h14.51.704203 +0530,
79,0.5,1.5,92.35404179996112,,92.33878180000465,92.35404179996112,92.85376259998884,92.85376259998884,92.85376259998884,93.15318839997053,93.53804409998702,left,-1.5,0,0,0.6686935999896377,142502,001,2024-09-12_21h14.44.880,Adaptive Staircase Experiment,2024.1.5,None,2024-09-12 21h14.51.704203 +0530,
80,0.5,2.0,93.55312559998129,,93.5381386000081,93.55312559998129,94.05243290000362,94.05243290000362,94.05243290000362,94.35179159999825,94.65365749999182,left,-2.0,1,1,0.5991460999939591,142502,001,2024-09-12_21h14.44.880,Adaptive Staircase Experiment,2024.1.5,None,2024-09-12 21h14.51.704203 +0530,
81,0.5,2.0,94.66862049995689,,94.65376219997415,94.66862049995689,95.16829409997445,95.16829409997445,95.16829409997445,95.46815729996888,95.71908069995698,left,-2.0,1,1,0.5359702000278048,142502,001,2024-09-12_21h14.44.880,Adaptive Staircase Experiment,2024.1.5,None,2024-09-12 21h14.51.704203 +0530,
82,0.5,2.0,95.73462060000747,,95.71917050000047,95.73462060000747,96.23366939998232,96.23366939998232,96.23366939998232,96.53399579995312,96.76790079998318,right,2.0,1,1,0.5221442000474781,142502,001,2024-09-12_21h14.44.880,Adaptive Staircase Experiment,2024.1.5,None,2024-09-12 21h14.51.704203 +0530,
83,0.5,1.5,96.7836004999699,,96.76800949999597,96.7836004999699,97.28271289996337,97.28271289996337,97.28271289996337,97.58329399995273,97.9495304999873,left,-1.5,1,1,0.6612517000176013,142502,001,2024-09-12_21h14.44.880,Adaptive Staircase Experiment,2024.1.5,None,2024-09-12 21h14.51.704203 +0530,
84,0.5,1.5,97.96588269999484,,97.9496202999726,97.96588269999484,98.4651585999527,98.4651585999527,98.4651585999527,98.76654489996145,99.06625709997024,right,1.5,1,1,0.5893411000142805,142502,001,2024-09-12_21h14.44.880,Adaptive Staircase Experiment,2024.1.5,None,2024-09-12 21h14.51.704203 +0530,
85,0.5,1.5,99.08162039995659,,99.06634689995553,99.08162039995659,99.58101399999578,99.58101399999578,99.59737919998588,99.88042770000175,100.21485419996316,left,-1.5,1,1,0.6309289999771863,142502,001,2024-09-12_21h14.44.880,Adaptive Staircase Experiment,2024.1.5,None,2024-09-12 21h14.51.704203 +0530,
86,0.5,1.0,100.23015029996168,,100.21494729997357,100.23015029996168,100.7300803999533,100.7300803999533,100.7300803999533,101.02986740000779,101.39822279999498,left,-1.0,1,1,0.6512750999536365,142502,001,2024-09-12_21h14.44.880,Adaptive Staircase Experiment,2024.1.5,None,2024-09-12 21h14.51.704203 +0530,
87,0.5,1.0,101.41269089997513,,101.39834259997588,101.41269089997513,101.91265479999129,101.91265479999129,101.91265479999129,102.22808099997928,102.57887069997378,left,-1.0,1,1,0.6534032999770716,142502,001,2024-09-12_21h14.44.880,Adaptive Staircase Experiment,2024.1.5,None,2024-09-12 21h14.51.704203 +0530,
88,0.5,1.0,102.5948562999838,,102.57896149996668,102.5948562999838,103.09479339997051,103.09479339997051,103.09479339997051,103.39403520000633,103.9456183000002,left,-1.0,1,1,0.8441147999837995,142502,001,2024-09-12_21h14.44.880,Adaptive Staircase Experiment,2024.1.5,None,2024-09-12 21h14.51.704203 +0530,
89,0.5,1.0,103.96041889995104,,103.94571459997678,103.96041889995104,104.45972549996804,104.45972549996804,104.45972549996804,104.75933829997666,105.11021909996634,right,1.0,1,1,0.6461755000054836,142502,001,2024-09-12_21h14.44.880,Adaptive Staircase Experiment,2024.1.5,None,2024-09-12 21h14.51.704203 +0530,
90,0.5,1.0,105.12588609999511,,105.11031009996077,105.12588609999511,105.62560319999466,105.62560319999466,105.62560319999466,105.92538269999204,106.27601509995293,left,-1.0,1,1,0.6378645999939181,142502,001,2024-09-12_21h14.44.880,Adaptive Staircase Experiment,2024.1.5,None,2024-09-12 21h14.51.704203 +0530,
91,0.5,1.0,106.29112389998045,,106.276105500001,106.29112389998045,106.79155699996045,106.79155699996045,106.79155699996045,107.09150859998772,107.3917506999569,left,-1.0,0,0,0.5923422999912873,142502,001,2024-09-12_21h14.44.880,Adaptive Staircase Experiment,2024.1.5,None,2024-09-12 21h14.51.704203 +0530,
92,0.5,1.5,107.40696359996218,,107.3918479999993,107.40696359996218,107.90640400000848,107.90640400000848,107.90640400000848,108.20641839999007,108.57379399996717,right,1.5,1,1,0.6526860999874771,142502,001,2024-09-12_21h14.44.880,Adaptive Staircase Experiment,2024.1.5,None,2024-09-12 21h14.51.704203 +0530,
93,0.5,1.5,108.58928569999989,,108.57388489996083,108.58928569999989,109.08885689999443,109.08885689999443,109.08885689999443,109.38874269998632,109.70575359999202,left,-1.5,0,0,0.6063317999942228,142502,001,2024-09-12_21h14.44.880,Adaptive Staircase Experiment,2024.1.5,None,2024-09-12 21h14.51.704203 +0530,
94,0.5,2.0,109.72187710000435,,109.70584690000396,109.72187710000435,110.22138909995556,110.22138909995556,110.22138909995556,110.52107879996765,110.73874129995238,left,-2.0,0,0,0.5065141000086442,142502,001,2024-09-12_21h14.44.880,Adaptive Staircase Experiment,2024.1.5,None,2024-09-12 21h14.51.704203 +0530,
95,0.5,2.5,110.75391639996087,,110.7388620999991,110.75391639996087,111.25380139995832,111.25380139995832,111.25380139995832,111.55388809996657,111.75472759996774,right,2.5,1,1,0.49829800002044067,142502,001,2024-09-12_21h14.44.880,Adaptive Staircase Experiment,2024.1.5,None,2024-09-12 21h14.51.704203 +0530,
96,0.5,2.5,111.76962719997391,,111.75485470000422,111.76962719997391,112.26976009999635,112.26976009999635,112.26976009999635,112.56932799995411,112.80393860000186,left,-2.5,1,1,0.5244273999705911,142502,001,2024-09-12_21h14.44.880,Adaptive Staircase Experiment,2024.1.5,None,2024-09-12 21h14.51.704203 +0530,
97,0.5,2.5,112.81860369996866,,112.80403279996244,112.81860369996866,113.31843719998142,113.31843719998142,113.31843719998142,113.61843219998991,113.91875299997628,left,-2.5,1,1,0.5855234000482596,142502,001,2024-09-12_21h14.44.880,Adaptive Staircase Experiment,2024.1.5,None,2024-09-12 21h14.51.704203 +0530,
98,0.5,2.0,113.93475640000543,,113.91885249997722,113.93475640000543,114.43453669996234,114.43453669996234,114.43453669996234,114.73366819997318,115.13424389995635,left,-2.0,1,1,0.6881345000001602,142502,001,2024-09-12_21h14.44.880,Adaptive Staircase Experiment,2024.1.5,None,2024-09-12 21h14.51.704203 +0530,
99,0.5,2.0,115.15028559998609,,115.1343350999523,115.15028559998609,115.64959679997992,115.64959679997992,115.64959679997992,115.95049829996424,116.61741299997084,left,-2.0,1,1,0.9645776000106707,142502,001,2024-09-12_21h14.44.880,Adaptive Staircase Experiment,2024.1.5,None,2024-09-12 21h14.51.704203 +0530,
