Study_word,test_word,Reference,old_new,trials.thisRepN,trials.thisTrialN,trials.thisN,trials.thisIndex,trials_2.thisRepN,trials_2.thisTrialN,trials_2.thisN,trials_2.thisIndex,thisRow.t,notes,trial.started,StudyText.started,Studyslider.started,trial.stopped,Studyslider.response,Studyslider.rt,TestPhase.started,TestText.started,test_textbox.started,submit_text.started,testmouse.started,TestPhase.stopped,test_textbox.text,testmouse.x,testmouse.y,testmouse.leftButton,testmouse.midButton,testmouse.rightButton,testmouse.time,testmouse.clicked_name,TestText.stopped,participant,session,date,expName,psychopyVersion,frameRate,expStart,
Police,,,,0,0,0,12,,,,,0.05860290001146495,,0.018260000040754676,0.05860290001146495,0.05860290001146495,2.574739799834788,1.0185185185185186,2.5232971000950783,,,,,,,,,,,,,,,,309747,001,2024-11-07_15h41.07.075,Word Priming Exp,2024.1.5,None,2024-11-07 15h41.11.891018 +0530,
board,,,,0,1,1,4,,,,,2.623193899868056,,2.575257600052282,2.623193899868056,2.623193899868056,3.374985999893397,1.0185185185185186,0.7666191000025719,,,,,,,,,,,,,,,,309747,001,2024-11-07_15h41.07.075,Word Priming Exp,2024.1.5,None,2024-11-07 15h41.11.891018 +0530,
Case,,,,0,2,2,10,,,,,3.3997362998779863,,3.375292500015348,3.3997362998779863,3.3997362998779863,4.015725899953395,1.0185185185185186,0.614166900049895,,,,,,,,,,,,,,,,309747,001,2024-11-07_15h41.07.075,Word Priming Exp,2024.1.5,None,2024-11-07 15h41.11.891018 +0530,
Pastry,,,,0,3,3,9,,,,,4.039724400034174,,4.016046999953687,4.039724400034174,4.039724400034174,4.666805899934843,1.0185185185185186,0.6258318999316543,,,,,,,,,,,,,,,,309747,001,2024-11-07_15h41.07.075,Word Priming Exp,2024.1.5,None,2024-11-07 15h41.11.891018 +0530,
T-shirt,,,,0,4,4,7,,,,,4.6912389998324215,,4.667120999889448,4.6912389998324215,4.6912389998324215,5.2722142999991775,1.0185185185185186,0.5792411998845637,,,,,,,,,,,,,,,,309747,001,2024-11-07_15h41.07.075,Word Priming Exp,2024.1.5,None,2024-11-07 15h41.11.891018 +0530,
mouse,,,,0,5,5,8,,,,,5.296253399923444,,5.272535800002515,5.296253399923444,5.296253399923444,6.090592599939555,1.0185185185185186,0.7949342001229525,,,,,,,,,,,,,,,,309747,001,2024-11-07_15h41.07.075,Word Priming Exp,2024.1.5,None,2024-11-07 15h41.11.891018 +0530,
Poster,,,,0,6,6,14,,,,,6.116672900039703,,6.090904199983925,6.116672900039703,6.116672900039703,6.703682099934667,1.0185185185185186,0.5884849999565631,,,,,,,,,,,,,,,,309747,001,2024-11-07_15h41.07.075,Word Priming Exp,2024.1.5,None,2024-11-07 15h41.11.891018 +0530,
Chart,,,,0,7,7,6,,,,,6.727997799869627,,6.704034399939701,6.727997799869627,6.727997799869627,7.205106199951842,1.0185185185185186,0.4756076999474317,,,,,,,,,,,,,,,,309747,001,2024-11-07_15h41.07.075,Word Priming Exp,2024.1.5,None,2024-11-07 15h41.11.891018 +0530,
cushion,,,,0,8,8,1,,,,,7.240917299874127,,7.20542769995518,7.240917299874127,7.240917299874127,7.827147200005129,1.0185185185185186,0.592717899940908,,,,,,,,,,,,,,,,309747,001,2024-11-07_15h41.07.075,Word Priming Exp,2024.1.5,None,2024-11-07 15h41.11.891018 +0530,
marble,,,,0,9,9,3,,,,,7.849617099855095,,7.827515600016341,7.849617099855095,7.849617099855095,8.327183400047943,1.0185185185185186,0.4751806000713259,,,,,,,,,,,,,,,,309747,001,2024-11-07_15h41.07.075,Word Priming Exp,2024.1.5,None,2024-11-07 15h41.11.891018 +0530,
Keys,,,,0,10,10,13,,,,,8.356674399925396,,8.32757700001821,8.356674399925396,8.356674399925396,8.943949299864471,1.0185185185185186,0.5878013998735696,,,,,,,,,,,,,,,,309747,001,2024-11-07_15h41.07.075,Word Priming Exp,2024.1.5,None,2024-11-07 15h41.11.891018 +0530,
book,,,,0,11,11,0,,,,,8.973928799852729,,8.94439179985784,8.973928799852729,8.973928799852729,9.515510099940002,1.0185185185185186,0.5422046999447048,,,,,,,,,,,,,,,,309747,001,2024-11-07_15h41.07.075,Word Priming Exp,2024.1.5,None,2024-11-07 15h41.11.891018 +0530,
Laptop,,,,0,12,12,5,,,,,9.541184699861333,,9.515832199947909,9.541184699861333,9.541184699861333,10.069294499931857,1.0185185185185186,0.5270784001331776,,,,,,,,,,,,,,,,309747,001,2024-11-07_15h41.07.075,Word Priming Exp,2024.1.5,None,2024-11-07 15h41.11.891018 +0530,
Cruise,,,,0,13,13,11,,,,,10.091908999951556,,10.069582700030878,10.091908999951556,10.091908999951556,10.862796599976718,1.0185185185185186,0.7677096999250352,,,,,,,,,,,,,,,,309747,001,2024-11-07_15h41.07.075,Word Priming Exp,2024.1.5,None,2024-11-07 15h41.11.891018 +0530,
phone,,,,0,14,14,2,,,,,10.89067790005356,,10.863178299972787,10.89067790005356,10.89067790005356,11.381360800005496,1.0185185185185186,0.48365790001116693,,,,,,,,,,,,,,,,309747,001,2024-11-07_15h41.07.075,Word Priming Exp,2024.1.5,None,2024-11-07 15h41.11.891018 +0530,
,T_hi_t,Tshirt,old,,,,,0,0,0,2,11.41428119991906,,,,,,,,11.38828990003094,11.41428119991906,11.41428119991906,11.41428119991906,0.012894000159576535,18.35455679986626,"tshirt
","[-0.49537037037037035, -0.052083333333333336]","[-0.30092592592592593, -0.28703703703703703]","[1, 1]","[0, 0]","[0, 0]","[0.2133615999482572, 6.9591930999886245]",['submit_text'],,309747,001,2024-11-07_15h41.07.075,Word Priming Exp,2024.1.5,None,2024-11-07 15h41.11.891018 +0530,
,v_s_,Vase,new,,,,,0,1,1,17,18.372315099928528,,,,,,,,18.355778499972075,18.372315099928528,18.372315099928528,18.372315099928528,0.0048380999360233545,21.33894359995611,"vase
",[-0.041666666666666664],[-0.28935185185185186],[1],[0],[0],[2.9777389001101255],['submit_text'],,309747,001,2024-11-07_15h41.07.075,Word Priming Exp,2024.1.5,None,2024-11-07 15h41.11.891018 +0530,
,_oo_,Book,old,,,,,0,2,2,13,21.358934700023383,,,,,,,,21.339977100025862,21.358934700023383,21.358934700023383,21.358934700023383,0.0033100999426096678,24.515242900000885,"book
",[-0.041666666666666664],[-0.28935185185185186],[1],[0],[0],[3.1715003999415785],['submit_text'],,309747,001,2024-11-07_15h41.07.075,Word Priming Exp,2024.1.5,None,2024-11-07 15h41.11.891018 +0530,
,_ha_t,Chart,old,,,,,0,3,3,1,24.531244799960405,,,,,,,,24.515878699952736,24.531244799960405,24.531244799960405,24.531244799960405,0.0024747999850660563,28.229012599913403,"chart
",[0.02199074074074074],[-0.29976851851851855],[1],[0],[0],[3.7101058999542147],['submit_text'],,309747,001,2024-11-07_15h41.07.075,Word Priming Exp,2024.1.5,None,2024-11-07 15h41.11.891018 +0530,
,p_nc_l,Pencil,new,,,,,0,4,4,16,28.244781299959868,,,,,,,,28.229664199985564,28.244781299959868,28.244781299959868,28.244781299959868,0.002275200095027685,31.893392799887806,"pencil
",[0.0],[-0.30092592592592593],[1],[0],[0],[3.6610004000831395],['submit_text'],,309747,001,2024-11-07_15h41.07.075,Word Priming Exp,2024.1.5,None,2024-11-07 15h41.11.891018 +0530,
,P_as_tr_,Pastry,old,,,,,0,5,5,4,31.908341399859637,,,,,,,,31.894039399921894,31.908341399859637,31.908341399859637,31.908341399859637,0.0023653998505324125,38.68594520003535,"pastry
",[0.006944444444444444],[-0.30092592592592593],[1],[0],[0],[6.789065199904144],['submit_text'],,309747,001,2024-11-07_15h41.07.075,Word Priming Exp,2024.1.5,None,2024-11-07 15h41.11.891018 +0530,
,_a_bl_,Marble,old,,,,,0,6,6,11,38.702646899968386,,,,,,,,38.68674949998967,38.702646899968386,38.702646899968386,38.702646899968386,0.002837100066244602,45.28040239983238,"table
",[0.028935185185185185],[-0.3125],[1],[0],[0],[6.590301000047475],['submit_text'],,309747,001,2024-11-07_15h41.07.075,Word Priming Exp,2024.1.5,None,2024-11-07 15h41.11.891018 +0530,
,l_pt_p,Laptop,old,,,,,0,7,7,0,45.29717949987389,,,,,,,,45.28120450000279,45.29717949987389,45.29717949987389,45.29717949987389,0.002877600025385618,48.07903190003708,"laptop
",[0.015046296296296295],[-0.30787037037037035],[1],[0],[0],[2.7944331001490355],['submit_text'],,309747,001,2024-11-07_15h41.07.075,Word Priming Exp,2024.1.5,None,2024-11-07 15h41.11.891018 +0530,
,_o_rd,Board,old,,,,,0,8,8,10,48.09529930003919,,,,,,,,48.07981489994563,48.09529930003919,48.09529930003919,48.09529930003919,0.0025919999461621046,55.20530799985863,"board
",[0.015046296296296295],[-0.3055555555555556],[1],[0],[0],[7.1224410000722855],['submit_text'],,309747,001,2024-11-07_15h41.07.075,Word Priming Exp,2024.1.5,None,2024-11-07 15h41.11.891018 +0530,
,ta_l_,Table,new,,,,,0,9,9,15,55.222361400024965,,,,,,,,55.20611359993927,55.222361400024965,55.222361400024965,55.222361400024965,0.0029684000182896852,59.50105159985833,"table
",[-0.02199074074074074],[-0.2974537037037037],[1],[0],[0],[4.291441600071266],['submit_text'],,309747,001,2024-11-07_15h41.07.075,Word Priming Exp,2024.1.5,None,2024-11-07 15h41.11.891018 +0530,
,c_s_,Case,old,,,,,0,10,10,5,59.517814999911934,,,,,,,,59.50194979994558,59.517814999911934,59.517814999911934,59.517814999911934,0.002520600100979209,62.53101409994997,"case
",[0.015046296296296295],[-0.3055555555555556],[1],[0],[0],[3.026038199895993],['submit_text'],,309747,001,2024-11-07_15h41.07.075,Word Priming Exp,2024.1.5,None,2024-11-07 15h41.11.891018 +0530,
,_ho_e,Phone,old,,,,,0,11,11,12,62.5483293000143,,,,,,,,62.531823199940845,62.5483293000143,62.5483293000143,62.5483293000143,0.002657099859789014,73.07272009993903,shoee,[-0.011574074074074073],[-0.30324074074074076],[1],[0],[0],[10.537752700038254],['submit_text'],72.55438430001959,309747,001,2024-11-07_15h41.07.075,Word Priming Exp,2024.1.5,None,2024-11-07 15h41.11.891018 +0530,
,P_li_e,Police,old,,,,,0,12,12,7,73.09067999990657,,,,,,,,73.07354509993456,73.09067999990657,73.09067999990657,73.09067999990657,0.002785000018775463,75.80307689984329,"police
",[0.006944444444444444],[-0.29976851851851855],[1],[0],[0],[2.7261980001349],['submit_text'],,309747,001,2024-11-07_15h41.07.075,Word Priming Exp,2024.1.5,None,2024-11-07 15h41.11.891018 +0530,
,_ru_is_,Cruise,old,,,,,0,13,13,6,75.81998539995402,,,,,,,,75.80388559983112,75.81998539995402,75.81998539995402,75.81998539995402,0.0028956998139619827,79.00011659995653,"cruise
",[0.006944444444444444],[-0.29976851851851855],[1],[0],[0],[3.192795699927956],['submit_text'],,309747,001,2024-11-07_15h41.07.075,Word Priming Exp,2024.1.5,None,2024-11-07 15h41.11.891018 +0530,
,P_st_r,Poster,old,,,,,0,14,14,9,79.01693159993738,,,,,,,,79.00091889989562,79.01693159993738,79.01693159993738,79.01693159993738,0.0026764997746795416,85.02712700003758,"pastry
",[0.034722222222222224],[-0.3125],[1],[0],[0],[6.02303189993836],['submit_text'],,309747,001,2024-11-07_15h41.07.075,Word Priming Exp,2024.1.5,None,2024-11-07 15h41.11.891018 +0530,
,c_s_io_,Cushion,old,,,,,0,15,15,14,85.04424900002778,,,,,,,,85.02793290000409,85.04424900002778,85.04424900002778,85.04424900002778,0.003131299978122115,88.45863120001741,"cushion
",[0.03125],[-0.28703703703703703],[1],[0],[0],[3.4268925001379102],['submit_text'],,309747,001,2024-11-07_15h41.07.075,Word Priming Exp,2024.1.5,None,2024-11-07 15h41.11.891018 +0530,
,_ou_se,mouse,old,,,,,0,16,16,3,88.47642800002359,,,,,,,,88.459466899978,88.47642800002359,88.47642800002359,88.47642800002359,0.002907100133597851,93.41936409985647,"mouse
",[0.016203703703703703],[-0.3090277777777778],[1],[0],[0],[4.956518300110474],['submit_text'],,309747,001,2024-11-07_15h41.07.075,Word Priming Exp,2024.1.5,None,2024-11-07 15h41.11.891018 +0530,
,bo_t_e,Bottle,new,,,,,0,17,17,18,93.43504799995571,,,,,,,,93.42000739998184,93.43504799995571,93.43504799995571,93.43504799995571,0.0021292001474648714,98.39862550003454,"bottle
",[0.006944444444444444],[-0.2847222222222222],[1],[0],[0],[4.975909499917179],['submit_text'],,309747,001,2024-11-07_15h41.07.075,Word Priming Exp,2024.1.5,None,2024-11-07 15h41.11.891018 +0530,
,c_m_ra,Camera,new,,,,,0,18,18,19,98.41754789999686,,,,,,,,98.39947529998608,98.41754789999686,98.41754789999686,98.41754789999686,0.0030036999378353357,102.11208439990878,"camera 
",[-0.0023148148148148147],[-0.30439814814814814],[1],[0],[0],[3.708951300010085],['submit_text'],,309747,001,2024-11-07_15h41.07.075,Word Priming Exp,2024.1.5,None,2024-11-07 15h41.11.891018 +0530,
,K_y_,Keys,old,,,,,0,19,19,8,102.12924519996159,,,,,,,,102.11291199992411,102.12924519996159,102.12924519996159,102.12924519996159,0.002755500143393874,104.89281130000018,keys,[-0.0023148148148148147],[-0.30439814814814814],[1],[0],[0],[2.7765223998576403],['submit_text'],,309747,001,2024-11-07_15h41.07.075,Word Priming Exp,2024.1.5,None,2024-11-07 15h41.11.891018 +0530,
