Study_word,test_word,Reference,old_new,trials.thisRepN,trials.thisTrialN,trials.thisN,trials.thisIndex,trials_2.thisRepN,trials_2.thisTrialN,trials_2.thisN,trials_2.thisIndex,thisRow.t,notes,trial.started,StudyText.started,Studyslider.started,trial.stopped,Studyslider.response,Studyslider.rt,TestPhase.started,TestText.started,test_textbox.started,submit_text.started,testmouse.started,TestText.stopped,TestPhase.stopped,test_textbox.text,testmouse.x,testmouse.y,testmouse.leftButton,testmouse.midButton,testmouse.rightButton,testmouse.time,testmouse.clicked_name,participant,session,date,expName,psychopyVersion,frameRate,expStart
mouse,,,,0,0,0,8,,,,,0.0353694,,0.0105542,0.0353694,0.0353694,2.7912846,1.009259259,2.7560294,,,,,,,,,,,,,,,,638035,1,2024-10-25_11h44.55.828,Word Priming Exp,2024.1.5,None,2024-10-25 11h44.59.615551 +0530
Pastry,,,,0,1,1,9,,,,,2.8231703,,2.7919512,2.8231703,2.8231703,3.1421464,1.009259259,0.3181482,,,,,,,,,,,,,,,,638035,1,2024-10-25_11h44.55.828,Word Priming Exp,2024.1.5,None,2024-10-25 11h44.59.615551 +0530
Cruise,,,,0,2,2,11,,,,,3.1649889,,3.1424285,3.1649889,3.1649889,3.6246693,1.009259259,0.4591387,,,,,,,,,,,,,,,,638035,1,2024-10-25_11h44.55.828,Word Priming Exp,2024.1.5,None,2024-10-25 11h44.59.615551 +0530
Police,,,,0,3,3,12,,,,,3.6477791,,3.6249504,3.6477791,3.6477791,4.091252,1.009259259,0.4429534,,,,,,,,,,,,,,,,638035,1,2024-10-25_11h44.55.828,Word Priming Exp,2024.1.5,None,2024-10-25 11h44.59.615551 +0530
board,,,,0,4,4,4,,,,,4.1148929,,4.0915357,4.1148929,4.1148929,4.7405933,1.009259259,0.6249351,,,,,,,,,,,,,,,,638035,1,2024-10-25_11h44.55.828,Word Priming Exp,2024.1.5,None,2024-10-25 11h44.59.615551 +0530
Laptop,,,,0,5,5,5,,,,,4.764218,,4.740875,4.764218,4.764218,5.2575208,1.009259259,0.4923258,,,,,,,,,,,,,,,,638035,1,2024-10-25_11h44.55.828,Word Priming Exp,2024.1.5,None,2024-10-25 11h44.59.615551 +0530
Poster,,,,0,6,6,14,,,,,5.2787706,,5.2578054,5.2787706,5.2787706,5.7896814,1.009259259,0.5087013,,,,,,,,,,,,,,,,638035,1,2024-10-25_11h44.55.828,Word Priming Exp,2024.1.5,None,2024-10-25 11h44.59.615551 +0530
Chart,,,,0,7,7,6,,,,,5.8164088,,5.7900046,5.8164088,5.8164088,6.2888132,1.009259259,0.4730442,,,,,,,,,,,,,,,,638035,1,2024-10-25_11h44.55.828,Word Priming Exp,2024.1.5,None,2024-10-25 11h44.59.615551 +0530
T-shirt,,,,0,8,8,7,,,,,6.3136027,,6.2890987,6.3136027,6.3136027,6.9225379,1.009259259,0.605819,,,,,,,,,,,,,,,,638035,1,2024-10-25_11h44.55.828,Word Priming Exp,2024.1.5,None,2024-10-25 11h44.59.615551 +0530
phone,,,,0,9,9,2,,,,,6.9490554,,6.9228743,6.9490554,6.9490554,7.5582411,1.009259259,0.6076451,,,,,,,,,,,,,,,,638035,1,2024-10-25_11h44.55.828,Word Priming Exp,2024.1.5,None,2024-10-25 11h44.59.615551 +0530
Case,,,,0,10,10,10,,,,,7.5805533,,7.5585328,7.5805533,7.5805533,8.1037514,1.009259259,0.521322,,,,,,,,,,,,,,,,638035,1,2024-10-25_11h44.55.828,Word Priming Exp,2024.1.5,None,2024-10-25 11h44.59.615551 +0530
cushion,,,,0,11,11,1,,,,,8.1236673,,8.1040253,8.1236673,8.1236673,8.5856901,1.009259259,0.4595815,,,,,,,,,,,,,,,,638035,1,2024-10-25_11h44.55.828,Word Priming Exp,2024.1.5,None,2024-10-25 11h44.59.615551 +0530
Keys,,,,0,12,12,13,,,,,8.6092724,,8.5859559,8.6092724,8.6092724,9.1851325,1.009259259,0.5755689,,,,,,,,,,,,,,,,638035,1,2024-10-25_11h44.55.828,Word Priming Exp,2024.1.5,None,2024-10-25 11h44.59.615551 +0530
book,,,,0,13,13,0,,,,,9.2106002,,9.185415,9.2106002,9.2106002,9.9514607,1.009259259,0.741396,,,,,,,,,,,,,,,,638035,1,2024-10-25_11h44.55.828,Word Priming Exp,2024.1.5,None,2024-10-25 11h44.59.615551 +0530
marble,,,,0,14,14,3,,,,,9.9730566,,9.9517451,9.9730566,9.9730566,10.6187822,1.009259259,0.6436289,,,,,,,,,,,,,,,,638035,1,2024-10-25_11h44.55.828,Word Priming Exp,2024.1.5,None,2024-10-25 11h44.59.615551 +0530
,p_nc_l,Pencil,new,,,,,0,0,0,16,10.6387566,,,,,,,,10.6234387,10.6387566,10.6387566,10.6387566,0.0082227,20.6381802,20.6397614,"pencil

","[0.0775462962962963, 0.024305555555555556]","[-0.23958333333333334, -0.3101851851851852]","[1, 1]","[0, 0]","[0, 0]","[5.882920900010504, 10.011946500046179]",['submit_text'],638035,1,2024-10-25_11h44.55.828,Word Priming Exp,2024.1.5,None,2024-10-25 11h44.59.615551 +0530
,T_hi_t,Tshirt,old,,,,,0,1,1,2,20.6564523,,,,,,,,20.641166,20.6564523,20.6564523,20.6564523,0.0024771,,30.1310127,"Tshirt
","[0.09953703703703703, 0.07060185185185185, -0.003472222222222222, 0.023148148148148147, -0.013888888888888888]","[-0.18518518518518517, -0.2349537037037037, -0.1875, -0.041666666666666664, -0.30324074074074076]","[1, 1, 1, 1, 1]","[0, 0, 0, 0, 0]","[0, 0, 0, 0, 0]","[4.491111900075339, 5.690628100070171, 6.640059700002894, 7.772048100014217, 9.486872000037692]",['submit_text'],638035,1,2024-10-25_11h44.55.828,Word Priming Exp,2024.1.5,None,2024-10-25 11h44.59.615551 +0530
,c_s_io_,Cushion,old,,,,,0,2,2,14,30.1474676,,,,,,,,30.1319034,30.1474676,30.1474676,30.1474676,0.0029304,,35.027334,cushion,[0.059027777777777776],[-0.30324074074074076],[1],[0],[0],[4.891949500073679],['submit_text'],638035,1,2024-10-25_11h44.55.828,Word Priming Exp,2024.1.5,None,2024-10-25 11h44.59.615551 +0530
,c_m_ra,Camera,new,,,,,0,3,3,19,35.0432593,,,,,,,,35.0281471,35.0432593,35.0432593,35.0432593,0.0026642,,38.4901391,camera,[0.05092592592592592],[-0.29050925925925924],[1],[0],[0],[3.458883299957961],['submit_text'],638035,1,2024-10-25_11h44.55.828,Word Priming Exp,2024.1.5,None,2024-10-25 11h44.59.615551 +0530
,l_pt_p,Laptop,old,,,,,0,4,4,0,38.506403,,,,,,,,38.4909285,38.506403,38.506403,38.506403,0.0028132,,41.8200958,laptop,[0.028935185185185185],[-0.3125],[1],[0],[0],[3.3258227999322116],['submit_text'],638035,1,2024-10-25_11h44.55.828,Word Priming Exp,2024.1.5,None,2024-10-25 11h44.59.615551 +0530
,_oo_,Book,old,,,,,0,5,5,13,41.8369855,,,,,,,,41.8211821,41.8369855,41.8369855,41.8369855,0.0026018,,46.3164953,book,[0.028935185185185185],[-0.30671296296296297],[1],[0],[0],[4.492237400030717],['submit_text'],638035,1,2024-10-25_11h44.55.828,Word Priming Exp,2024.1.5,None,2024-10-25 11h44.59.615551 +0530
,P_st_r,Poster,old,,,,,0,6,6,9,46.3332729,,,,,,,,46.3172823,46.3332729,46.3332729,46.3332729,0.0026554,,50.3798506,poster,[0.02662037037037037],[-0.3113425925925926],[1],[0],[0],[4.059345599962398],['submit_text'],638035,1,2024-10-25_11h44.55.828,Word Priming Exp,2024.1.5,None,2024-10-25 11h44.59.615551 +0530
,P_as_tr_,Pastry,old,,,,,0,7,7,4,50.3972336,,,,,,,,50.38064,50.3972336,50.3972336,50.3972336,0.0035473,,56.0407858,"pastry
",[0.05439814814814815],[-0.29976851851851855],[1],[0],[0],[5.656065599992871],['submit_text'],638035,1,2024-10-25_11h44.55.828,Word Priming Exp,2024.1.5,None,2024-10-25 11h44.59.615551 +0530
,_o_rd,Board,old,,,,,0,8,8,10,56.0594344,,,,,,,,56.0418663,56.0594344,56.0594344,56.0594344,0.0028204,66.0641246,68.5135879,chord,[0.05787037037037037],[-0.30092592592592593],[1],[0],[0],[12.468405299936421],['submit_text'],638035,1,2024-10-25_11h44.55.828,Word Priming Exp,2024.1.5,None,2024-10-25 11h44.59.615551 +0530
,_ho_e,Phone,old,,,,,0,9,9,12,68.5308852,,,,,,,,68.5143767,68.5308852,68.5308852,68.5308852,0.0031431,78.5360483,92.8414719,shoe,[0.08101851851851852],[-0.3275462962962963],[1],[0],[0],[24.323395299958065],['submit_text'],638035,1,2024-10-25_11h44.55.828,Word Priming Exp,2024.1.5,None,2024-10-25 11h44.59.615551 +0530
,P_li_e,Police,old,,,,,0,10,10,7,92.8580839,,,,,,,,92.8426447,92.8580839,92.8580839,92.8580839,0.0030366,,96.3548752,police,[0.11226851851851852],[-0.29398148148148145],[1],[0],[0],[3.508756099967286],['submit_text'],638035,1,2024-10-25_11h44.55.828,Word Priming Exp,2024.1.5,None,2024-10-25 11h44.59.615551 +0530
,_ou_se,mouse,old,,,,,0,11,11,3,96.3719913,,,,,,,,96.3556827,96.3719913,96.3719913,96.3719913,0.0027446,,99.9186261,mouse,[0.1076388888888889],[-0.2951388888888889],[1],[0],[0],[3.5596454000333324],['submit_text'],638035,1,2024-10-25_11h44.55.828,Word Priming Exp,2024.1.5,None,2024-10-25 11h44.59.615551 +0530
,_ha_t,Chart,old,,,,,0,12,12,1,99.9355343,,,,,,,,99.9194173,99.9355343,99.9355343,99.9355343,0.0029291,,103.9639873,chart,[0.09490740740740741],[-0.29976851851851855],[1],[0],[0],[4.041113600018434],['submit_text'],638035,1,2024-10-25_11h44.55.828,Word Priming Exp,2024.1.5,None,2024-10-25 11h44.59.615551 +0530
,c_s_,Case,old,,,,,0,13,13,5,103.9808802,,,,,,,,103.964786,103.9808802,103.9808802,103.9808802,0.0027883,,107.2113962,case,[0.08912037037037036],[-0.30324074074074076],[1],[0],[0],[3.243315000087023],['submit_text'],638035,1,2024-10-25_11h44.55.828,Word Priming Exp,2024.1.5,None,2024-10-25 11h44.59.615551 +0530
,_ru_is_,Cruise,old,,,,,0,14,14,6,107.2296532,,,,,,,,107.2121862,107.2296532,107.2296532,107.2296532,0.00268,,112.9226473,"cruise
",[0.03935185185185185],[-0.30787037037037035],[1],[0],[0],[5.707251900108531],['submit_text'],638035,1,2024-10-25_11h44.55.828,Word Priming Exp,2024.1.5,None,2024-10-25 11h44.59.615551 +0530
,v_s_,Vase,new,,,,,0,15,15,17,112.9425573,,,,,,,,112.9237401,112.9425573,112.9425573,112.9425573,0.0059902,,115.9225779,vase,[0.06944444444444445],[-0.29976851851851855],[1],[0],[0],[2.9920021999860182],['submit_text'],638035,1,2024-10-25_11h44.55.828,Word Priming Exp,2024.1.5,None,2024-10-25 11h44.59.615551 +0530
,K_y_,Keys,old,,,,,0,16,16,8,115.9518833,,,,,,,,115.9239982,115.9518833,115.9518833,115.9518833,0.0042801,,119.2180702,keys,[0.10532407407407407],[-0.30671296296296297],[1],[0],[0],[3.289312000037171],['submit_text'],638035,1,2024-10-25_11h44.55.828,Word Priming Exp,2024.1.5,None,2024-10-25 11h44.59.615551 +0530
,_a_bl_,Marble,old,,,,,0,17,17,11,119.2361408,,,,,,,,119.2188714,119.2361408,119.2361408,119.2361408,0.0029132,,124.0961509,table,[0.13194444444444445],[-0.29282407407407407],[1],[0],[0],[4.873839700012468],['submit_text'],638035,1,2024-10-25_11h44.55.828,Word Priming Exp,2024.1.5,None,2024-10-25 11h44.59.615551 +0530
,ta_l_,Table,new,,,,,0,18,18,15,124.1125991,,,,,,,,124.0970119,124.1125991,124.1125991,124.1125991,0.0029887,,128.4755747,tale,[0.11689814814814815],[-0.3125],[1],[0],[0],[4.375062100007199],['submit_text'],638035,1,2024-10-25_11h44.55.828,Word Priming Exp,2024.1.5,None,2024-10-25 11h44.59.615551 +0530
,bo_t_e,Bottle,new,,,,,0,19,19,18,128.4922243,,,,,,,,128.4763663,128.4922243,128.4922243,128.4922243,0.0027949,,131.3064088,bottle,[0.1284722222222222],[-0.30787037037037035],[1],[0],[0],[2.8265373000176623],['submit_text'],638035,1,2024-10-25_11h44.55.828,Word Priming Exp,2024.1.5,None,2024-10-25 11h44.59.615551 +0530
