Study_word,test_word,Reference,old_new,trials.thisRepN,trials.thisTrialN,trials.thisN,trials.thisIndex,trials_2.thisRepN,trials_2.thisTrialN,trials_2.thisN,trials_2.thisIndex,thisRow.t,notes,trial.started,StudyText.started,Studyslider.started,StudyText.stopped,trial.stopped,Studyslider.response,Studyslider.rt,TestPhase.started,TestText.started,test_textbox.started,submit_text.started,testmouse.started,TestText.stopped,TestPhase.stopped,test_textbox.text,testmouse.x,testmouse.y,testmouse.leftButton,testmouse.midButton,testmouse.rightButton,testmouse.time,testmouse.clicked_name,participant,session,date,expName,psychopyVersion,frameRate,expStart,
Cruise,,,,0,0,0,11,,,,,0.04580809990875423,,0.01270200009457767,0.04580809990875423,0.04580809990875423,8.044737299904227,13.370859100017697,1.0277777777777777,13.323570400010794,,,,,,,,,,,,,,,,907104,001,2024-11-07_15h35.24.606,Word Priming Exp,2024.1.5,None,2024-11-07 15h35.30.797987 +0530,
Case,,,,0,1,1,10,,,,,13.424189999932423,,13.372889100108296,13.424189999932423,13.424189999932423,,15.612993200076744,1.0694444444444444,2.208995700115338,,,,,,,,,,,,,,,,907104,001,2024-11-07_15h35.24.606,Word Priming Exp,2024.1.5,None,2024-11-07 15h35.30.797987 +0530,
T-shirt,,,,0,2,2,7,,,,,15.639646300114691,,15.613304400118068,15.639646300114691,15.639646300114691,,16.60918530006893,1.0694444444444444,0.9700197000056505,,,,,,,,,,,,,,,,907104,001,2024-11-07_15h35.24.606,Word Priming Exp,2024.1.5,None,2024-11-07 15h35.30.797987 +0530,
cushion,,,,0,3,3,1,,,,,16.63547129998915,,16.60948080010712,16.63547129998915,16.63547129998915,,18.99719369993545,1,2.3632086000870913,,,,,,,,,,,,,,,,907104,001,2024-11-07_15h35.24.606,Word Priming Exp,2024.1.5,None,2024-11-07 15h35.30.797987 +0530,
Pastry,,,,0,4,4,9,,,,,19.023985899984837,,18.997711299918592,19.023985899984837,19.023985899984837,,19.95755030005239,1,0.9321129999589175,,,,,,,,,,,,,,,,907104,001,2024-11-07_15h35.24.606,Word Priming Exp,2024.1.5,None,2024-11-07 15h35.30.797987 +0530,
Chart,,,,0,5,5,6,,,,,19.97899720002897,,19.957848800113425,19.97899720002897,19.97899720002897,,20.878107199911028,1,0.8985727999825031,,,,,,,,,,,,,,,,907104,001,2024-11-07_15h35.24.606,Word Priming Exp,2024.1.5,None,2024-11-07 15h35.30.797987 +0530,
marble,,,,0,6,6,3,,,,,20.900518800131977,,20.878388500073925,20.900518800131977,20.900518800131977,,21.766070200130343,1,0.8653835000004619,,,,,,,,,,,,,,,,907104,001,2024-11-07_15h35.24.606,Word Priming Exp,2024.1.5,None,2024-11-07 15h35.30.797987 +0530,
mouse,,,,0,7,7,8,,,,,21.793945899931714,,21.766586400102824,21.793945899931714,21.793945899931714,,22.65598200005479,1,0.8619692998472601,,,,,,,,,,,,,,,,907104,001,2024-11-07_15h35.24.606,Word Priming Exp,2024.1.5,None,2024-11-07 15h35.30.797987 +0530,
Laptop,,,,0,8,8,5,,,,,22.68074920005165,,22.656271900050342,22.68074920005165,22.68074920005165,,23.516294100089,1,0.8291179998777807,,,,,,,,,,,,,,,,907104,001,2024-11-07_15h35.24.606,Word Priming Exp,2024.1.5,None,2024-11-07 15h35.30.797987 +0530,
Police,,,,0,9,9,12,,,,,23.54841970000416,,23.51687559997663,23.54841970000416,23.54841970000416,,24.303056299919263,1,0.7566328998655081,,,,,,,,,,,,,,,,907104,001,2024-11-07_15h35.24.606,Word Priming Exp,2024.1.5,None,2024-11-07 15h35.30.797987 +0530,
phone,,,,0,10,10,2,,,,,24.32803270011209,,24.303376500029117,24.32803270011209,24.32803270011209,,24.984974100021645,1,0.656625899951905,,,,,,,,,,,,,,,,907104,001,2024-11-07_15h35.24.606,Word Priming Exp,2024.1.5,None,2024-11-07 15h35.30.797987 +0530,
Keys,,,,0,11,11,13,,,,,25.01185530005023,,24.98537479992956,25.01185530005023,25.01185530005023,,25.758185100043193,1,0.7473724998999387,,,,,,,,,,,,,,,,907104,001,2024-11-07_15h35.24.606,Word Priming Exp,2024.1.5,None,2024-11-07 15h35.30.797987 +0530,
Poster,,,,0,12,12,14,,,,,25.78272010013461,,25.75851899990812,25.78272010013461,25.78272010013461,,26.466144199948758,1,0.6850502998568118,,,,,,,,,,,,,,,,907104,001,2024-11-07_15h35.24.606,Word Priming Exp,2024.1.5,None,2024-11-07 15h35.30.797987 +0530,
board,,,,0,13,13,4,,,,,26.48811940010637,,26.466431400040165,26.48811940010637,26.48811940010637,,27.216710600070655,1,0.7269087000750005,,,,,,,,,,,,,,,,907104,001,2024-11-07_15h35.24.606,Word Priming Exp,2024.1.5,None,2024-11-07 15h35.30.797987 +0530,
book,,,,0,14,14,0,,,,,27.239262300077826,,27.217019899981096,27.239262300077826,27.239262300077826,,28.116796599933878,1,0.8747568000108004,,,,,,,,,,,,,,,,907104,001,2024-11-07_15h35.24.606,Word Priming Exp,2024.1.5,None,2024-11-07 15h35.30.797987 +0530,
,_ho_e,Phone,old,,,,,0,0,0,12,28.143024600110948,,,,,,,,,28.123346799984574,28.143024600110948,28.143024600110948,28.143024600110948,0.011696900008246303,38.15217450005002,38.20268650003709,"chose
",[0.016203703703703703],[-0.29976851851851855],[1],[0],[0],[10.073061700211838],['submit_text'],907104,001,2024-11-07_15h35.24.606,Word Priming Exp,2024.1.5,None,2024-11-07 15h35.30.797987 +0530,
,_ru_is_,Cruise,old,,,,,0,1,1,6,38.220868499949574,,,,,,,,,38.2038901001215,38.220868499949574,38.220868499949574,38.220868499949574,0.002772300038486719,,43.08117219991982,"cruise
",[0.0023148148148148147],[-0.29398148148148145],[1],[0],[0],[4.874017399968579],['submit_text'],907104,001,2024-11-07_15h35.24.606,Word Priming Exp,2024.1.5,None,2024-11-07 15h35.30.797987 +0530,
,_oo_,Book,old,,,,,0,2,2,13,43.096863799961284,,,,,,,,,43.08186160004698,43.096863799961284,43.096863799961284,43.096863799961284,0.002473799977451563,,47.87733320007101,"book
",[0.03587962962962963],[-0.3263888888888889],[1],[0],[0],[4.792506100144237],['submit_text'],907104,001,2024-11-07_15h35.24.606,Word Priming Exp,2024.1.5,None,2024-11-07 15h35.30.797987 +0530,
,P_st_r,Poster,old,,,,,0,3,3,9,47.89347780006938,,,,,,,,,47.877997800009325,47.89347780006938,47.89347780006938,47.89347780006938,0.002710800152271986,,51.490232600132,poster,[0.04050925925925926],[-0.3113425925925926],[1],[0],[0],[3.609021499985829],['submit_text'],907104,001,2024-11-07_15h35.24.606,Word Priming Exp,2024.1.5,None,2024-11-07 15h35.30.797987 +0530,
,bo_t_e,Bottle,new,,,,,0,4,4,18,51.5071596999187,,,,,,,,,51.49099369999021,51.5071596999187,51.5071596999187,51.5071596999187,0.0026584998704493046,,55.33657760010101,bottle,[0.03935185185185185],[-0.29398148148148145],[1],[0],[0],[3.8423937000334263],['submit_text'],907104,001,2024-11-07_15h35.24.606,Word Priming Exp,2024.1.5,None,2024-11-07 15h35.30.797987 +0530,
,P_as_tr_,Pastry,old,,,,,0,5,5,4,55.35423960001208,,,,,,,,,55.337349500041455,55.35423960001208,55.35423960001208,55.35423960001208,0.0029005000833421946,,59.915548800025135,"pastry
",[0.04398148148148148],[-0.2916666666666667],[1],[0],[0],[4.57483489997685],['submit_text'],907104,001,2024-11-07_15h35.24.606,Word Priming Exp,2024.1.5,None,2024-11-07 15h35.30.797987 +0530,
,_a_bl_,Marble,old,,,,,0,6,6,11,59.932838400127366,,,,,,,,,59.91638220008463,59.932838400127366,59.932838400127366,59.932838400127366,0.0031354001257568598,,65.144811199978,"table
",[0.08101851851851852],[-0.3101851851851852],[1],[0],[0],[5.224750000052154],['submit_text'],907104,001,2024-11-07_15h35.24.606,Word Priming Exp,2024.1.5,None,2024-11-07 15h35.30.797987 +0530,
,l_pt_p,Laptop,old,,,,,0,7,7,0,65.16226679994725,,,,,,,,,65.14565060008317,65.16226679994725,65.16226679994725,65.16226679994725,0.002892300020903349,,69.64050420001149,"laptop
",[0.006944444444444444],[-0.3229166666666667],[1],[0],[0],[4.491436899872497],['submit_text'],907104,001,2024-11-07_15h35.24.606,Word Priming Exp,2024.1.5,None,2024-11-07 15h35.30.797987 +0530,
,ta_l_,Table,new,,,,,0,8,8,15,69.6572535999585,,,,,,,,,69.64131000009365,69.6572535999585,69.6572535999585,69.6572535999585,0.0027216000016778708,,74.31999030010775,table,[0.023148148148148147],[-0.29398148148148145],[1],[0],[0],[4.67530919983983],['submit_text'],907104,001,2024-11-07_15h35.24.606,Word Priming Exp,2024.1.5,None,2024-11-07 15h35.30.797987 +0530,
,c_m_ra,Camera,new,,,,,0,9,9,19,74.33752489998005,,,,,,,,,74.32103589992039,74.33752489998005,74.33752489998005,74.33752489998005,0.0029094999190419912,,78.4493221999146,"camera
",[0.0023148148148148147],[-0.29398148148148145],[1],[0],[0],[4.124854100169614],['submit_text'],907104,001,2024-11-07_15h35.24.606,Word Priming Exp,2024.1.5,None,2024-11-07 15h35.30.797987 +0530,
,c_s_,Case,old,,,,,0,10,10,5,78.46777370013297,,,,,,,,,78.45012539997697,78.46777370013297,78.46777370013297,78.46777370013297,0.002919000107795,,83.54416589997709,"case
",[0.020833333333333332],[-0.2847222222222222],[1],[0],[0],[5.090621700044721],['submit_text'],907104,001,2024-11-07_15h35.24.606,Word Priming Exp,2024.1.5,None,2024-11-07 15h35.30.797987 +0530,
,T_hi_t,Tshirt,old,,,,,0,11,11,2,83.5651517000515,,,,,,,,,83.54497510008514,83.5651517000515,83.5651517000515,83.5651517000515,0.0044305999763309956,,88.48975740000606,"tshirt
",[-0.017361111111111112],[-0.3055555555555556],[1],[0],[0],[4.939794899895787],['submit_text'],907104,001,2024-11-07_15h35.24.606,Word Priming Exp,2024.1.5,None,2024-11-07 15h35.30.797987 +0530,
,_o_rd,Board,old,,,,,0,12,12,10,88.50777740008198,,,,,,,,,88.49059209995903,88.50777740008198,88.50777740008198,88.50777740008198,0.003450399963185191,98.51286339992657,143.7408674999606,"chose
",[-0.0023148148148148147],[-0.2824074074074074],[1],[0],[0],[55.24627449992113],['submit_text'],907104,001,2024-11-07_15h35.24.606,Word Priming Exp,2024.1.5,None,2024-11-07 15h35.30.797987 +0530,
,P_li_e,Police,old,,,,,0,13,13,7,143.7577313000802,,,,,,,,,143.7416773000732,143.7577313000802,143.7577313000802,143.7577313000802,0.0028081999626010656,,150.4848239000421,"police
",[0.017361111111111112],[-0.29976851851851855],[1],[0],[0],[6.739717899821699],['submit_text'],907104,001,2024-11-07_15h35.24.606,Word Priming Exp,2024.1.5,None,2024-11-07 15h35.30.797987 +0530,
,p_nc_l,Pencil,new,,,,,0,14,14,16,150.501586999977,,,,,,,,,150.48565670009702,150.501586999977,150.501586999977,150.501586999977,0.0027934000827372074,,153.84820690006018,pencil,[0.020833333333333332],[-0.29282407407407407],[1],[0],[0],[3.359171099960804],['submit_text'],907104,001,2024-11-07_15h35.24.606,Word Priming Exp,2024.1.5,None,2024-11-07 15h35.30.797987 +0530,
,_ou_se,mouse,old,,,,,0,15,15,3,153.8650491000153,,,,,,,,,153.84904829994775,153.8650491000153,153.8650491000153,153.8650491000153,0.00299849989823997,,158.0939865000546,"mouse
",[-0.006944444444444444],[-0.3090277777777778],[1],[0],[0],[4.241324200062081],['submit_text'],907104,001,2024-11-07_15h35.24.606,Word Priming Exp,2024.1.5,None,2024-11-07 15h35.30.797987 +0530,
,K_y_,Keys,old,,,,,0,16,16,8,158.1121690000873,,,,,,,,,158.09479700005613,158.1121690000873,158.1121690000873,158.1121690000873,0.002580600092187524,,161.7405952999834,"keys
",[0.006944444444444444],[-0.2974537037037037],[1],[0],[0],[3.642601399915293],['submit_text'],907104,001,2024-11-07_15h35.24.606,Word Priming Exp,2024.1.5,None,2024-11-07 15h35.30.797987 +0530,
,v_s_,Vase,new,,,,,0,17,17,17,161.76764250011183,,,,,,,,,161.7418553000316,161.76764250011183,161.76764250011183,161.76764250011183,0.0137406000867486,,166.10285110003315,"vase
",[0.016203703703703703],[-0.29282407407407407],[1],[0],[0],[4.346838400000706],['submit_text'],907104,001,2024-11-07_15h35.24.606,Word Priming Exp,2024.1.5,None,2024-11-07 15h35.30.797987 +0530,
,_ha_t,Chart,old,,,,,0,18,18,1,166.12025130004622,,,,,,,,,166.10366369993426,166.12025130004622,166.12025130004622,166.12025130004622,0.0028659000527113676,,171.88163299998268,"chart
",[-0.013888888888888888],[-0.31712962962962965],[1],[0],[0],[5.7743478999473155],['submit_text'],907104,001,2024-11-07_15h35.24.606,Word Priming Exp,2024.1.5,None,2024-11-07 15h35.30.797987 +0530,
,c_s_io_,Cushion,old,,,,,0,19,19,14,171.90251379995607,,,,,,,,,171.88287220010534,171.90251379995607,171.90251379995607,171.90251379995607,0.004182799952104688,,176.17802889994346,"cushion
",[0.02199074074074074],[-0.2986111111111111],[1],[0],[0],[4.290410999907181],['submit_text'],907104,001,2024-11-07_15h35.24.606,Word Priming Exp,2024.1.5,None,2024-11-07 15h35.30.797987 +0530,
