trials.thisRepN,trials.thisTrialN,trials.thisN,trials.thisIndex,thisRow.t,notes,trial.started,num_distr&,Fixation.started,Target.started,mouse.started,trial.stopped,mouse.x,mouse.y,mouse.leftButton,mouse.midButton,mouse.rightButton,mouse.time,mouse.clicked_name,num_distr,participant,session,date,expName,psychopyVersion,frameRate,expStart,
0,0,0,0,0.07816529998672195,,0.008854399988194928,10,0.07816529998672195,0.07816529998672195,0.056471500007319264,3.550237199990079,[-0.06111111111111111],[0.45740740740740743],[1],[0],[0],[3.492807900009211],['Target'],,210692,001,2024-10-08_21h30.12.939,Visual Search Task_tutorial,2024.1.5,None,2024-10-08 21h30.20.946966 +0530,
1,0,1,0,3.6140744999866,,3.5562123999989126,10,3.6140744999866,3.6140744999866,0.04078979999758303,7.039562499994645,[0.4935185185185185],[-0.38796296296296295],[1],[0],[0],[3.442843400000129],['Target'],,210692,001,2024-10-08_21h30.12.939,Visual Search Task_tutorial,2024.1.5,None,2024-10-08 21h30.20.946966 +0530,
2,0,2,0,7.106471199993393,,7.044568400000571,10,7.106471199993393,7.106471199993393,0.043821499988553114,9.673422599997139,[-0.4962962962962963],[0.4685185185185185],[1],[0],[0],[2.585376200004248],['Target'],,210692,001,2024-10-08_21h30.12.939,Visual Search Task_tutorial,2024.1.5,None,2024-10-08 21h30.20.946966 +0530,
3,0,3,0,9.734487899986561,,9.678218799992464,10,9.734487899986561,9.734487899986561,0.0392444000026444,13.609966999996686,[0.3351851851851852],[-0.4898148148148148],[1],[0],[0],[3.8928881000028923],['Target'],,210692,001,2024-10-08_21h30.12.939,Visual Search Task_tutorial,2024.1.5,None,2024-10-08 21h30.20.946966 +0530,
4,0,4,0,13.671479299999191,,13.614786499994807,10,13.671479299999191,13.671479299999191,0.03959020000183955,16.130609899992123,[-0.041666666666666664],[-0.3388888888888889],[1],[0],[0],[2.476669399999082],['Target'],,210692,001,2024-10-08_21h30.12.939,Visual Search Task_tutorial,2024.1.5,None,2024-10-08 21h30.20.946966 +0530,
5,0,5,0,16.184624699992128,,16.134588199987775,10,16.184624699992128,16.184624699992128,0.03434630000265315,19.018218999990495,[0.06666666666666667],[-0.3509259259259259],[1],[0],[0],[2.8495382999972207],['Target'],,210692,001,2024-10-08_21h30.12.939,Visual Search Task_tutorial,2024.1.5,None,2024-10-08 21h30.20.946966 +0530,
6,0,6,0,19.082254099994316,,19.02297499999986,10,19.082254099994316,19.082254099994316,0.04032240000378806,22.258457699994324,[-0.04814814814814815],[-0.37037037037037035],[1],[0],[0],[3.1957548999926075],['Target'],,210692,001,2024-10-08_21h30.12.939,Visual Search Task_tutorial,2024.1.5,None,2024-10-08 21h30.20.946966 +0530,
7,0,7,0,22.311444899998605,,22.26236069999868,10,22.311444899998605,22.311444899998605,0.03344689999357797,25.740632799992454,[-0.05740740740740741],[0.2962962962962963],[1],[0],[0],[3.4451296999905026],['Target'],,210692,001,2024-10-08_21h30.12.939,Visual Search Task_tutorial,2024.1.5,None,2024-10-08 21h30.20.946966 +0530,
8,0,8,0,25.777800899988506,,25.745103900000686,,25.777800899988506,25.777800899988506,0.020564299993566237,28.33655349999026,[0.06574074074074074],[-0.43703703703703706],[1],[0],[0],[2.571202599996468],['Target'],5,210692,001,2024-10-08_21h30.12.939,Visual Search Task_tutorial,2024.1.5,None,2024-10-08 21h30.20.946966 +0530,
9,0,9,0,28.39838429998781,,28.34115059999749,10,28.39838429998781,28.39838429998781,0.03890490000776481,30.74494359998789,[-0.3962962962962963],[-0.16203703703703703],[1],[0],[0],[2.365233200005605],['Target'],,210692,001,2024-10-08_21h30.12.939,Visual Search Task_tutorial,2024.1.5,None,2024-10-08 21h30.20.946966 +0530,
10,0,10,0,30.807982799989986,,30.749622499992256,10,30.807982799989986,30.807982799989986,0.04116829999838956,33.12515259999782,[-0.3907407407407407],[0.35462962962962963],[1],[0],[0],[2.33471599999757],['Target'],,210692,001,2024-10-08_21h30.12.939,Visual Search Task_tutorial,2024.1.5,None,2024-10-08 21h30.20.946966 +0530,
11,0,11,0,33.20051459998649,,33.13222539999697,10,33.20051459998649,33.20051459998649,0.05254859999695327,35.28033219999634,[-0.4666666666666667],[-0.06851851851851852],[1],[0],[0],[2.0966588000010233],['Target'],,210692,001,2024-10-08_21h30.12.939,Visual Search Task_tutorial,2024.1.5,None,2024-10-08 21h30.20.946966 +0530,
12,0,12,0,35.331281499995384,,35.28423429999384,10,35.331281499995384,35.331281499995384,0.03220449999207631,37.65656329999911,[0.20462962962962963],[-0.175],[1],[0],[0],[2.3402438999910373],['Target'],,210692,001,2024-10-08_21h30.12.939,Visual Search Task_tutorial,2024.1.5,None,2024-10-08 21h30.20.946966 +0530,
13,0,13,0,37.719677699991735,,37.661332299991045,10,37.719677699991735,37.719677699991735,0.039852100002462976,40.8057157999865,[0.4685185185185185],[-0.47314814814814815],[1],[0],[0],[3.1049478000059025],['Target'],,210692,001,2024-10-08_21h30.12.939,Visual Search Task_tutorial,2024.1.5,None,2024-10-08 21h30.20.946966 +0530,
14,0,14,0,40.84591879999789,,40.81059679998725,,40.84591879999789,40.84591879999789,0.022260500001721084,43.12319469999056,[-0.13703703703703704],[0.14537037037037037],[1],[0],[0],[2.290765499987174],['Target'],5,210692,001,2024-10-08_21h30.12.939,Visual Search Task_tutorial,2024.1.5,None,2024-10-08 21h30.20.946966 +0530,
15,0,15,0,43.18625699999393,,43.12777459999779,10,43.18625699999393,43.18625699999393,0.039001799988909625,45.5789994999941,[-0.34814814814814815],[-0.13518518518518519],[1],[0],[0],[2.4124698999949032],['Target'],,210692,001,2024-10-08_21h30.12.939,Visual Search Task_tutorial,2024.1.5,None,2024-10-08 21h30.20.946966 +0530,
16,0,16,0,45.6169680999883,,45.5837704000005,,45.6169680999883,45.6169680999883,0.019730599989998154,48.585061799996765,[-0.49166666666666664],[0.475],[1],[0],[0],[2.9819654999882914],['Target'],5,210692,001,2024-10-08_21h30.12.939,Visual Search Task_tutorial,2024.1.5,None,2024-10-08 21h30.20.946966 +0530,
17,0,17,0,48.624233199996524,,48.589671499998076,,48.624233199996524,48.624233199996524,0.021157299997867085,51.5479270999931,[0.45092592592592595],[-0.020370370370370372],[1],[0],[0],[2.9374697000021115],['Target'],5,210692,001,2024-10-08_21h30.12.939,Visual Search Task_tutorial,2024.1.5,None,2024-10-08 21h30.20.946966 +0530,
18,0,18,0,51.612562599999364,,51.55286339999293,10,51.612562599999364,51.612562599999364,0.04204070000560023,54.680902799998876,[-0.37962962962962965],[0.34444444444444444],[1],[0],[0],[3.0864911999960896],['Target'],,210692,001,2024-10-08_21h30.12.939,Visual Search Task_tutorial,2024.1.5,None,2024-10-08 21h30.20.946966 +0530,
19,0,19,0,54.74419459998899,,54.68576480000047,10,54.74419459998899,54.74419459998899,0.03990190000331495,57.853880799986655,[0.2351851851851852],[0.40185185185185185],[1],[0],[0],[3.1285634999949252],['Target'],,210692,001,2024-10-08_21h30.12.939,Visual Search Task_tutorial,2024.1.5,None,2024-10-08 21h30.20.946966 +0530,
20,0,20,0,57.92193219999899,,57.85843899998872,10,57.92193219999899,57.92193219999899,0.040834400002495386,61.257600899989484,[0.38796296296296295],[0.31296296296296294],[1],[0],[0],[3.3586540999967838],['Target'],,210692,001,2024-10-08_21h30.12.939,Visual Search Task_tutorial,2024.1.5,None,2024-10-08 21h30.20.946966 +0530,
21,0,21,0,61.294900099994265,,61.262395899990224,,61.294900099994265,61.294900099994265,0.01979109999956563,63.74232159998792,[0.44722222222222224],[-0.22777777777777777],[1],[0],[0],[2.4604729999991832],['Target'],5,210692,001,2024-10-08_21h30.12.939,Visual Search Task_tutorial,2024.1.5,None,2024-10-08 21h30.20.946966 +0530,
22,0,22,0,63.803779099995154,,63.74729749999824,10,63.803779099995154,63.803779099995154,0.0395050000079209,66.37558429999626,[-0.18055555555555555],[-0.07222222222222222],[1],[0],[0],[2.589185600008932],['Target'],,210692,001,2024-10-08_21h30.12.939,Visual Search Task_tutorial,2024.1.5,None,2024-10-08 21h30.20.946966 +0530,
23,0,23,0,66.43886289998773,,66.38021819999267,10,66.43886289998773,66.43886289998773,0.040578100000857376,69.9354011999967,[0.4564814814814815],[-0.1527777777777778],[1],[0],[0],[3.514974700010498],['Target'],,210692,001,2024-10-08_21h30.12.939,Visual Search Task_tutorial,2024.1.5,None,2024-10-08 21h30.20.946966 +0530,
24,0,24,0,69.97251189999224,,69.93995459999132,,69.97251189999224,69.97251189999224,0.019209599995519966,74.11116029998811,[0.45092592592592595],[0.19166666666666668],[1],[0],[0],[4.1522070999926655],['Target'],5,210692,001,2024-10-08_21h30.12.939,Visual Search Task_tutorial,2024.1.5,None,2024-10-08 21h30.20.946966 +0530,
25,0,25,0,74.14889199999743,,74.11569989999407,,74.14889199999743,74.14889199999743,0.020418700005393475,76.62578689999646,[-0.4759259259259259],[0.1361111111111111],[1],[0],[0],[2.490014199996949],['Target'],5,210692,001,2024-10-08_21h30.12.939,Visual Search Task_tutorial,2024.1.5,None,2024-10-08 21h30.20.946966 +0530,
26,0,26,0,76.66319929999008,,76.63039829999616,,76.66319929999008,76.66319929999008,0.019998999996460043,79.33990639999683,[0.4203703703703704],[-0.43333333333333335],[1],[0],[0],[2.689908499989542],['Target'],5,210692,001,2024-10-08_21h30.12.939,Visual Search Task_tutorial,2024.1.5,None,2024-10-08 21h30.20.946966 +0530,
27,0,27,0,79.4032787999895,,79.34491079999134,10,79.4032787999895,79.4032787999895,0.0409537000086857,81.87159659998724,[-0.1537037037037037],[0.4166666666666667],[1],[0],[0],[2.486390999998548],['Target'],,210692,001,2024-10-08_21h30.12.939,Visual Search Task_tutorial,2024.1.5,None,2024-10-08 21h30.20.946966 +0530,
28,0,28,0,81.93131909999647,,81.87626319999981,10,81.93131909999647,81.93131909999647,0.037780900005600415,84.34777729999041,[-0.41574074074074074],[0.13148148148148148],[1],[0],[0],[2.434168399995542],['Target'],,210692,001,2024-10-08_21h30.12.939,Visual Search Task_tutorial,2024.1.5,None,2024-10-08 21h30.20.946966 +0530,
29,0,29,0,84.38443519998691,,84.3524047999963,,84.38443519998691,84.38443519998691,0.02002820000052452,87.70047159999376,[-0.4759259259259259],[-0.42407407407407405],[1],[0],[0],[3.3284020999999484],['Target'],5,210692,001,2024-10-08_21h30.12.939,Visual Search Task_tutorial,2024.1.5,None,2024-10-08 21h30.20.946966 +0530,
30,0,30,0,87.73890379999648,,87.7053964999941,,87.73890379999648,87.73890379999648,0.020540899990010075,90.41414109998732,[0.2814814814814815],[-0.38425925925925924],[1],[0],[0],[2.688669300012407],['Target'],5,210692,001,2024-10-08_21h30.12.939,Visual Search Task_tutorial,2024.1.5,None,2024-10-08 21h30.20.946966 +0530,
31,0,31,0,90.47637530000065,,90.41882029999397,10,90.47637530000065,90.47637530000065,0.039942699993844144,92.9514618999965,[-0.07962962962962963],[-0.2222222222222222],[1],[0],[0],[2.493103999993764],['Target'],,210692,001,2024-10-08_21h30.12.939,Visual Search Task_tutorial,2024.1.5,None,2024-10-08 21h30.20.946966 +0530,
32,0,32,0,92.9907164999895,,92.9564657999872,,92.9907164999895,92.9907164999895,0.020941100010531954,97.27411609998671,[0.42962962962962964],[0.40185185185185185],[1],[0],[0],[4.29703359999985],['Target'],5,210692,001,2024-10-08_21h30.12.939,Visual Search Task_tutorial,2024.1.5,None,2024-10-08 21h30.20.946966 +0530,
33,0,33,0,97.33777139999438,,97.27968219999457,10,97.33777139999438,97.33777139999438,0.0393603999982588,99.6610120999976,[-0.47962962962962963],[-0.041666666666666664],[1],[0],[0],[2.3431665999960387],['Target'],,210692,001,2024-10-08_21h30.12.939,Visual Search Task_tutorial,2024.1.5,None,2024-10-08 21h30.20.946966 +0530,
34,0,34,0,99.70099669999036,,99.66600639998796,,99.70099669999036,99.70099669999036,0.02089299999352079,102.53619459999027,[0.13703703703703704],[0.43703703703703706],[1],[0],[0],[2.849732100003166],['Target'],5,210692,001,2024-10-08_21h30.12.939,Visual Search Task_tutorial,2024.1.5,None,2024-10-08 21h30.20.946966 +0530,
35,0,35,0,102.59835859999293,,102.54095629999938,10,102.59835859999293,102.59835859999293,0.04024220000428613,105.17142309999326,[0.08148148148148149],[-0.08703703703703704],[1],[0],[0],[2.5905881999933627],['Target'],,210692,001,2024-10-08_21h30.12.939,Visual Search Task_tutorial,2024.1.5,None,2024-10-08 21h30.20.946966 +0530,
36,0,36,0,105.2357570999884,,105.1762069999968,10,105.2357570999884,105.2357570999884,0.04033550000167452,108.14541489999101,[-0.46296296296296297],[-0.040740740740740744],[1],[0],[0],[2.9292812000057893],['Target'],,210692,001,2024-10-08_21h30.12.939,Visual Search Task_tutorial,2024.1.5,None,2024-10-08 21h30.20.946966 +0530,
37,0,37,0,108.18331749999197,,108.15002950000053,,108.18331749999197,108.18331749999197,0.019780000002356246,110.96403009998903,[0.21851851851851853],[0.004629629629629629],[1],[0],[0],[2.7944078000000445],['Target'],5,210692,001,2024-10-08_21h30.12.939,Visual Search Task_tutorial,2024.1.5,None,2024-10-08 21h30.20.946966 +0530,
38,0,38,0,111.01403669999854,,110.97281439999642,,111.01403669999854,111.01403669999854,0.028907999992952682,114.50840969999263,[-0.03611111111111111],[-0.024074074074074074],[1],[0],[0],[3.5080916000006255],['Target'],5,210692,001,2024-10-08_21h30.12.939,Visual Search Task_tutorial,2024.1.5,None,2024-10-08 21h30.20.946966 +0530,
39,0,39,0,114.57435659998737,,114.51338279999618,10,114.57435659998737,114.57435659998737,0.04307600000174716,117.03128109998943,[0.04259259259259259],[0.26944444444444443],[1],[0],[0],[2.4752239000081317],['Target'],,210692,001,2024-10-08_21h30.12.939,Visual Search Task_tutorial,2024.1.5,None,2024-10-08 21h30.20.946966 +0530,
40,0,40,0,117.09380649999366,,117.03616819999297,10,117.09380649999366,117.09380649999366,0.04010670000570826,120.11633209999127,[0.4083333333333333],[-0.11574074074074074],[1],[0],[0],[3.040344200009713],['Target'],,210692,001,2024-10-08_21h30.12.939,Visual Search Task_tutorial,2024.1.5,None,2024-10-08 21h30.20.946966 +0530,
41,0,41,0,120.17927179999242,,120.12142859998858,10,120.17927179999242,120.17927179999242,0.03857459999562707,123.69123769999715,[-0.4351851851851852],[-0.48148148148148145],[1],[0],[0],[3.531583700008923],['Target'],,210692,001,2024-10-08_21h30.12.939,Visual Search Task_tutorial,2024.1.5,None,2024-10-08 21h30.20.946966 +0530,
42,0,42,0,123.72943719998875,,123.69633219999378,,123.72943719998875,123.72943719998875,0.02066910000576172,126.73111749999225,[0.27037037037037037],[0.2712962962962963],[1],[0],[0],[3.01452729999437],['Target'],5,210692,001,2024-10-08_21h30.12.939,Visual Search Task_tutorial,2024.1.5,None,2024-10-08 21h30.20.946966 +0530,
43,0,43,0,126.79437599999073,,126.7357742999884,10,126.79437599999073,126.79437599999073,0.03908709999814164,129.17285719999927,[-0.375],[0.2740740740740741],[1],[0],[0],[2.398340699990513],['Target'],,210692,001,2024-10-08_21h30.12.939,Visual Search Task_tutorial,2024.1.5,None,2024-10-08 21h30.20.946966 +0530,
44,0,44,0,129.23534919999656,,129.17787529999623,10,129.23534919999656,129.23534919999656,0.0400493000051938,132.18584099999862,[-0.10092592592592593],[-0.05648148148148148],[1],[0],[0],[2.9683382000075653],['Target'],,210692,001,2024-10-08_21h30.12.939,Visual Search Task_tutorial,2024.1.5,None,2024-10-08 21h30.20.946966 +0530,
45,0,45,0,132.2474455999909,,132.19091099999787,10,132.2474455999909,132.2474455999909,0.03879310000047553,134.81759219999367,[0.31203703703703706],[-0.11851851851851852],[1],[0],[0],[2.5882418999972288],['Target'],,210692,001,2024-10-08_21h30.12.939,Visual Search Task_tutorial,2024.1.5,None,2024-10-08 21h30.20.946966 +0530,
46,0,46,0,134.8550802999962,,134.82245279999916,,134.8550802999962,134.8550802999962,0.020335199995315634,137.23883209998894,[-0.15925925925925927],[-0.016666666666666666],[1],[0],[0],[2.3964524999901187],['Target'],5,210692,001,2024-10-08_21h30.12.939,Visual Search Task_tutorial,2024.1.5,None,2024-10-08 21h30.20.946966 +0530,
47,0,47,0,137.27673509999295,,137.24344500000007,,137.27673509999295,137.27673509999295,0.01994300000660587,139.55241489999753,[-0.08148148148148149],[-0.23333333333333334],[1],[0],[0],[2.28939679999894],['Target'],5,210692,001,2024-10-08_21h30.12.939,Visual Search Task_tutorial,2024.1.5,None,2024-10-08 21h30.20.946966 +0530,
48,0,48,0,139.61216279999644,,139.55710039999394,10,139.61216279999644,139.61216279999644,0.038572899997234344,142.28291519999038,[0.32222222222222224],[-0.17314814814814813],[1],[0],[0],[2.6876359000016237],['Target'],,210692,001,2024-10-08_21h30.12.939,Visual Search Task_tutorial,2024.1.5,None,2024-10-08 21h30.20.946966 +0530,
49,0,49,0,142.32155769999372,,142.28759909998917,,142.32155769999372,142.32155769999372,0.020605600002454594,144.9477671999921,[-0.4685185185185185],[0.2657407407407407],[1],[0],[0],[2.6400472999957856],['Target'],5,210692,001,2024-10-08_21h30.12.939,Visual Search Task_tutorial,2024.1.5,None,2024-10-08 21h30.20.946966 +0530,
50,0,50,0,144.9964112999878,,144.95248069999798,,144.9964112999878,144.9964112999878,0.02689059999829624,147.57826269998623,[-0.10092592592592593],[-0.36018518518518516],[1],[0],[0],[2.599360500011244],['Target'],5,210692,001,2024-10-08_21h30.12.939,Visual Search Task_tutorial,2024.1.5,None,2024-10-08 21h30.20.946966 +0530,
51,0,51,0,147.63993689999916,,147.5829698999878,10,147.63993689999916,147.63993689999916,0.03961610000988003,150.1108857999934,[0.16018518518518518],[0.23703703703703705],[1],[0],[0],[2.4887087999959476],['Target'],,210692,001,2024-10-08_21h30.12.939,Visual Search Task_tutorial,2024.1.5,None,2024-10-08 21h30.20.946966 +0530,
52,0,52,0,150.14879689998634,,150.11572809999052,,150.14879689998634,150.14879689998634,0.0207209999935003,153.17333919998782,[-0.20185185185185187],[0.2916666666666667],[1],[0],[0],[3.0373265000089305],['Target'],5,210692,001,2024-10-08_21h30.12.939,Visual Search Task_tutorial,2024.1.5,None,2024-10-08 21h30.20.946966 +0530,
53,0,53,0,153.21106399998826,,153.17793779999192,,153.21106399998826,153.21106399998826,0.02073900001414586,155.65433469999698,[0.44537037037037036],[0.175],[1],[0],[0],[2.45601280000119],['Target'],5,210692,001,2024-10-08_21h30.12.939,Visual Search Task_tutorial,2024.1.5,None,2024-10-08 21h30.20.946966 +0530,
54,0,54,0,155.71570029998838,,155.65892379998695,10,155.71570029998838,155.71570029998838,0.03818889999820385,158.68914499999664,[0.08425925925925926],[-0.17037037037037037],[1],[0],[0],[2.9924820000014734],['Target'],,210692,001,2024-10-08_21h30.12.939,Visual Search Task_tutorial,2024.1.5,None,2024-10-08 21h30.20.946966 +0530,
55,0,55,0,158.7490589999943,,158.69404259999283,10,158.7490589999943,158.7490589999943,0.03836269999737851,161.69479399999545,[-0.3425925925925926],[0.1111111111111111],[1],[0],[0],[2.9628343999938807],['Target'],,210692,001,2024-10-08_21h30.12.939,Visual Search Task_tutorial,2024.1.5,None,2024-10-08 21h30.20.946966 +0530,
56,0,56,0,161.75952889998734,,161.69948509999085,10,161.75952889998734,161.75952889998734,0.04073249999783002,164.97262359999877,[0.35],[0.03333333333333333],[1],[0],[0],[3.2327415000036126],['Target'],,210692,001,2024-10-08_21h30.12.939,Visual Search Task_tutorial,2024.1.5,None,2024-10-08 21h30.20.946966 +0530,
57,0,57,0,165.0360851000005,,164.97785489998932,10,165.0360851000005,165.0360851000005,0.04092930001206696,167.23571359999187,[0.4222222222222222],[0.17685185185185184],[1],[0],[0],[2.217353700005333],['Target'],,210692,001,2024-10-08_21h30.12.939,Visual Search Task_tutorial,2024.1.5,None,2024-10-08 21h30.20.946966 +0530,
58,0,58,0,167.27078769999207,,167.24040830000013,,167.27078769999207,167.27078769999207,0.019147200000588782,170.0422014999931,[-0.32592592592592595],[-0.3814814814814815],[1],[0],[0],[2.7829368999955477],['Target'],5,210692,001,2024-10-08_21h30.12.939,Visual Search Task_tutorial,2024.1.5,None,2024-10-08 21h30.20.946966 +0530,
59,0,59,0,170.0801489999867,,170.0468542999879,,170.0801489999867,170.0801489999867,0.019886900001438335,172.27286499999173,[0.07222222222222222],[0.04351851851851852],[1],[0],[0],[2.2066061999939848],['Target'],5,210692,001,2024-10-08_21h30.12.939,Visual Search Task_tutorial,2024.1.5,None,2024-10-08 21h30.20.946966 +0530,
60,0,60,0,172.31242939998629,,172.2774774999998,,172.31242939998629,172.31242939998629,0.022549700006493367,174.7037127999938,[-0.18425925925925926],[0.04351851851851852],[1],[0],[0],[2.404064600006677],['Target'],5,210692,001,2024-10-08_21h30.12.939,Visual Search Task_tutorial,2024.1.5,None,2024-10-08 21h30.20.946966 +0530,
61,0,61,0,174.74108739999065,,174.70848569998634,,174.74108739999065,174.74108739999065,0.019494799998938106,177.4848401999916,[0.4185185185185185],[0.31851851851851853],[1],[0],[0],[2.7572515000065323],['Target'],5,210692,001,2024-10-08_21h30.12.939,Visual Search Task_tutorial,2024.1.5,None,2024-10-08 21h30.20.946966 +0530,
62,0,62,0,177.55176099999517,,177.48954329999106,10,177.55176099999517,177.55176099999517,0.044355699996231124,179.77707649998774,[0.25277777777777777],[0.25833333333333336],[1],[0],[0],[2.243604499992216],['Target'],,210692,001,2024-10-08_21h30.12.939,Visual Search Task_tutorial,2024.1.5,None,2024-10-08 21h30.20.946966 +0530,
63,0,63,0,179.81368129998737,,179.78168379999988,,179.81368129998737,179.81368129998737,0.02044259999820497,182.66405999999552,[0.14907407407407408],[-0.26666666666666666],[1],[0],[0],[2.862303999994765],['Target'],5,210692,001,2024-10-08_21h30.12.939,Visual Search Task_tutorial,2024.1.5,None,2024-10-08 21h30.20.946966 +0530,
64,0,64,0,182.72664979999536,,182.66889929999888,10,182.72664979999536,182.72664979999536,0.04118860000744462,185.79957989999093,[-0.5],[-0.2462962962962963],[1],[0],[0],[3.089867899994715],['Target'],,210692,001,2024-10-08_21h30.12.939,Visual Search Task_tutorial,2024.1.5,None,2024-10-08 21h30.20.946966 +0530,
65,0,65,0,185.85875909999595,,185.80425560000003,10,185.85875909999595,185.85875909999595,0.038957400000072084,188.56006309999793,[0.04722222222222222],[-0.27037037037037037],[1],[0],[0],[2.7171292999992147],['Target'],,210692,001,2024-10-08_21h30.12.939,Visual Search Task_tutorial,2024.1.5,None,2024-10-08 21h30.20.946966 +0530,
66,0,66,0,188.61969749999116,,188.56488189999072,10,188.61969749999116,188.61969749999116,0.03853619999426883,192.50746939999226,[-0.23333333333333334],[0.1787037037037037],[1],[0],[0],[3.90442219999386],['Target'],,210692,001,2024-10-08_21h30.12.939,Visual Search Task_tutorial,2024.1.5,None,2024-10-08 21h30.20.946966 +0530,
67,0,67,0,192.54875529999845,,192.5122360999958,,192.54875529999845,192.54875529999845,0.021451900000101887,195.2518216999888,[0.021296296296296296],[-0.375],[1],[0],[0],[2.7185563999955775],['Target'],5,210692,001,2024-10-08_21h30.12.939,Visual Search Task_tutorial,2024.1.5,None,2024-10-08 21h30.20.946966 +0530,
68,0,68,0,195.28984359999595,,195.25685389999126,,195.28984359999595,195.28984359999595,0.02041260000260081,197.7165229999955,[0.009259259259259259],[-0.22870370370370371],[1],[0],[0],[2.439689899998484],['Target'],5,210692,001,2024-10-08_21h30.12.939,Visual Search Task_tutorial,2024.1.5,None,2024-10-08 21h30.20.946966 +0530,
69,0,69,0,197.75353929999983,,197.72114869998768,,197.75353929999983,197.75353929999983,0.01997300000221003,200.09768949999125,[-0.17777777777777778],[-0.3675925925925926],[1],[0],[0],[2.35682440000528],['Target'],5,210692,001,2024-10-08_21h30.12.939,Visual Search Task_tutorial,2024.1.5,None,2024-10-08 21h30.20.946966 +0530,
70,0,70,0,200.1565780999954,,200.10228669999924,10,200.1565780999954,200.1565780999954,0.035712400000193156,202.9739658999897,[-0.10740740740740741],[0.4074074074074074],[1],[0],[0],[2.836254999987432],['Target'],,210692,001,2024-10-08_21h30.12.939,Visual Search Task_tutorial,2024.1.5,None,2024-10-08 21h30.20.946966 +0530,
71,0,71,0,203.0360260999878,,202.9786732999928,10,203.0360260999878,203.0360260999878,0.04000100000121165,204.9500493999949,[0.040740740740740744],[0.21296296296296297],[1],[0],[0],[1.9318022999941604],['Target'],,210692,001,2024-10-08_21h30.12.939,Visual Search Task_tutorial,2024.1.5,None,2024-10-08 21h30.20.946966 +0530,
72,0,72,0,205.00977949998924,,204.95481049999944,10,205.00977949998924,205.00977949998924,0.03810170000360813,207.3951604999893,[-0.3055555555555556],[0.40370370370370373],[1],[0],[0],[2.4026157000043895],['Target'],,210692,001,2024-10-08_21h30.12.939,Visual Search Task_tutorial,2024.1.5,None,2024-10-08 21h30.20.946966 +0530,
73,0,73,0,207.43256239999027,,207.39981689999695,,207.43256239999027,207.43256239999027,0.020342599993455224,210.05526269999973,[-0.35648148148148145],[-0.12407407407407407],[1],[0],[0],[2.635463200000231],['Target'],5,210692,001,2024-10-08_21h30.12.939,Visual Search Task_tutorial,2024.1.5,None,2024-10-08 21h30.20.946966 +0530,
74,0,74,0,210.11940679998952,,210.06019269999524,10,210.11940679998952,210.11940679998952,0.04048470000270754,212.37547619998804,[0.2037037037037037],[0.45740740740740743],[1],[0],[0],[2.275176700000884],['Target'],,210692,001,2024-10-08_21h30.12.939,Visual Search Task_tutorial,2024.1.5,None,2024-10-08 21h30.20.946966 +0530,
75,0,75,0,212.4107132999925,,212.38004869999713,,212.4107132999925,212.4107132999925,0.018669400000362657,215.00114359999134,[-0.06296296296296296],[-0.04722222222222222],[1],[0],[0],[2.602813400008017],['Target'],5,210692,001,2024-10-08_21h30.12.939,Visual Search Task_tutorial,2024.1.5,None,2024-10-08 21h30.20.946966 +0530,
76,0,76,0,215.06143929999962,,215.00576139999612,10,215.06143929999962,215.06143929999962,0.037757999991299585,217.03293180000037,[-0.12314814814814815],[0.1425925925925926],[1],[0],[0],[1.9895976999978302],['Target'],,210692,001,2024-10-08_21h30.12.939,Visual Search Task_tutorial,2024.1.5,None,2024-10-08 21h30.20.946966 +0530,
77,0,77,0,217.06998309999472,,217.03754759998992,,217.06998309999472,217.06998309999472,0.020510800008196384,219.11417109999456,[0.3768518518518518],[0.19537037037037036],[1],[0],[0],[2.0564900000026682],['Target'],5,210692,001,2024-10-08_21h30.12.939,Visual Search Task_tutorial,2024.1.5,None,2024-10-08 21h30.20.946966 +0530,
78,0,78,0,219.17650689999573,,219.1188381999964,10,219.17650689999573,219.17650689999573,0.039715099992463365,221.16181320000032,[0.1111111111111111],[0.08518518518518518],[1],[0],[0],[2.0036728999984916],['Target'],,210692,001,2024-10-08_21h30.12.939,Visual Search Task_tutorial,2024.1.5,None,2024-10-08 21h30.20.946966 +0530,
79,0,79,0,221.22194689999742,,221.1664361999865,10,221.22194689999742,221.22194689999742,0.03859070000180509,223.4069973000005,[0.14444444444444443],[0.462037037037037],[1],[0],[0],[2.2023252000071807],['Target'],,210692,001,2024-10-08_21h30.12.939,Visual Search Task_tutorial,2024.1.5,None,2024-10-08 21h30.20.946966 +0530,
80,0,80,0,223.44381169999542,,223.41163779998897,,223.44381169999542,223.44381169999542,0.020178299993858673,225.64220859999477,[0.08888888888888889],[0.43703703703703706],[1],[0],[0],[2.2107039999973495],['Target'],5,210692,001,2024-10-08_21h30.12.939,Visual Search Task_tutorial,2024.1.5,None,2024-10-08 21h30.20.946966 +0530,
81,0,81,0,225.70244559999264,,225.6471399999864,10,225.70244559999264,225.70244559999264,0.038922500010812655,228.43823159999738,[0.22962962962962963],[0.29074074074074074],[1],[0],[0],[2.752813499988406],['Target'],,210692,001,2024-10-08_21h30.12.939,Visual Search Task_tutorial,2024.1.5,None,2024-10-08 21h30.20.946966 +0530,
82,0,82,0,228.49972299998626,,228.4429256000003,10,228.49972299998626,228.49972299998626,0.038139500000397675,231.5150530999963,[-0.45],[0.18981481481481483],[1],[0],[0],[3.034402899997076],['Target'],,210692,001,2024-10-08_21h30.12.939,Visual Search Task_tutorial,2024.1.5,None,2024-10-08 21h30.20.946966 +0530,
83,0,83,0,231.57636909998837,,231.51988829999755,10,231.57636909998837,231.57636909998837,0.0396550000004936,234.01691299999948,[0.28703703703703703],[0.4203703703703704],[1],[0],[0],[2.457828899991],['Target'],,210692,001,2024-10-08_21h30.12.939,Visual Search Task_tutorial,2024.1.5,None,2024-10-08 21h30.20.946966 +0530,
84,0,84,0,234.04976889998943,,234.02074459999858,,234.04976889998943,234.04976889998943,0.017453299995395355,237.4138920999976,[0.009259259259259259],[-0.18518518518518517],[1],[0],[0],[3.375960399993346],['Target'],5,210692,001,2024-10-08_21h30.12.939,Visual Search Task_tutorial,2024.1.5,None,2024-10-08 21h30.20.946966 +0530,
85,0,85,0,237.45358639999176,,237.41846619998978,,237.45358639999176,237.45358639999176,0.020966399999451824,240.41080859999056,[0.04722222222222222],[-0.4648148148148148],[1],[0],[0],[2.971775099998922],['Target'],5,210692,001,2024-10-08_21h30.12.939,Visual Search Task_tutorial,2024.1.5,None,2024-10-08 21h30.20.946966 +0530,
86,0,86,0,240.4493364999944,,240.41540309999255,,240.4493364999944,240.4493364999944,0.021464799996465445,242.85868609999306,[-0.24722222222222223],[-0.48333333333333334],[1],[0],[0],[2.422192800004268],['Target'],5,210692,001,2024-10-08_21h30.12.939,Visual Search Task_tutorial,2024.1.5,None,2024-10-08 21h30.20.946966 +0530,
87,0,87,0,242.9172649999964,,242.86328369998955,10,242.9172649999964,242.9172649999964,0.03767729998799041,246.15531099999498,[-0.2814814814814815],[-0.4351851851851852],[1],[0],[0],[3.2547837999882177],['Target'],,210692,001,2024-10-08_21h30.12.939,Visual Search Task_tutorial,2024.1.5,None,2024-10-08 21h30.20.946966 +0530,
88,0,88,0,246.19061009999132,,246.15985009999713,,246.19061009999132,246.19061009999132,0.01901759998872876,248.25396559998626,[-0.1527777777777778],[-0.42407407407407405],[1],[0],[0],[2.0754669000016293],['Target'],5,210692,001,2024-10-08_21h30.12.939,Visual Search Task_tutorial,2024.1.5,None,2024-10-08 21h30.20.946966 +0530,
89,0,89,0,248.2927139999956,,248.25855039998714,,248.2927139999956,248.2927139999956,0.022106699994765222,250.60177899998962,[-0.37222222222222223],[-0.03888888888888889],[1],[0],[0],[2.3214813000085996],['Target'],5,210692,001,2024-10-08_21h30.12.939,Visual Search Task_tutorial,2024.1.5,None,2024-10-08 21h30.20.946966 +0530,
90,0,90,0,250.66144379999605,,250.6064112999884,10,250.66144379999605,250.66144379999605,0.03879540000343695,253.2629933999997,[-0.20925925925925926],[-0.42314814814814816],[1],[0],[0],[2.6181280000018887],['Target'],,210692,001,2024-10-08_21h30.12.939,Visual Search Task_tutorial,2024.1.5,None,2024-10-08 21h30.20.946966 +0530,
91,0,91,0,253.32565489999251,,253.26798959998996,10,253.32565489999251,253.32565489999251,0.041050100000575185,255.43830469998647,[-0.37962962962962965],[-0.075],[1],[0],[0],[2.129731199995149],['Target'],,210692,001,2024-10-08_21h30.12.939,Visual Search Task_tutorial,2024.1.5,None,2024-10-08 21h30.20.946966 +0530,
92,0,92,0,255.47854829998687,,255.44320769999467,,255.47854829998687,255.47854829998687,0.02273909999348689,258.1782800999936,[0.1527777777777778],[0.3537037037037037],[1],[0],[0],[2.712689700012561],['Target'],5,210692,001,2024-10-08_21h30.12.939,Visual Search Task_tutorial,2024.1.5,None,2024-10-08 21h30.20.946966 +0530,
93,0,93,0,258.2379549999896,,258.18279110000003,10,258.2379549999896,258.2379549999896,0.03828140000405256,260.4665626999922,[-0.1935185185185185],[0.13425925925925927],[1],[0],[0],[2.245894199993927],['Target'],,210692,001,2024-10-08_21h30.12.939,Visual Search Task_tutorial,2024.1.5,None,2024-10-08 21h30.20.946966 +0530,
94,0,94,0,260.5277153999923,,260.47125299999607,10,260.5277153999923,260.5277153999923,0.03784790000645444,263.88062849998823,[-0.06944444444444445],[0.0],[1],[0],[0],[3.3719303000107175],['Target'],,210692,001,2024-10-08_21h30.12.939,Visual Search Task_tutorial,2024.1.5,None,2024-10-08 21h30.20.946966 +0530,
95,0,95,0,263.9187516999955,,263.88559879999957,,263.9187516999955,263.9187516999955,0.021149899999727495,267.1373852999968,[-0.38055555555555554],[-0.27314814814814814],[1],[0],[0],[3.2312266000080854],['Target'],5,210692,001,2024-10-08_21h30.12.939,Visual Search Task_tutorial,2024.1.5,None,2024-10-08 21h30.20.946966 +0530,
96,0,96,0,267.1744172999897,,267.14221349998843,,267.1744172999897,267.1744172999897,0.019431900000199676,269.48510149998765,[-0.37592592592592594],[-0.48148148148148145],[1],[0],[0],[2.3238194000005024],['Target'],5,210692,001,2024-10-08_21h30.12.939,Visual Search Task_tutorial,2024.1.5,None,2024-10-08 21h30.20.946966 +0530,
97,0,97,0,269.5219788999966,,269.48988879998797,,269.5219788999966,269.5219788999966,0.020166700007393956,273.015130499989,[0.4685185185185185],[0.3787037037037037],[1],[0],[0],[3.5054082999995444],['Target'],5,210692,001,2024-10-08_21h30.12.939,Visual Search Task_tutorial,2024.1.5,None,2024-10-08 21h30.20.946966 +0530,
98,0,98,0,273.07167269999627,,273.01967850000074,10,273.07167269999627,273.07167269999627,0.03600199999345932,275.9751322999946,[-0.2175925925925926],[-0.31203703703703706],[1],[0],[0],[2.9198576000053436],['Target'],,210692,001,2024-10-08_21h30.12.939,Visual Search Task_tutorial,2024.1.5,None,2024-10-08 21h30.20.946966 +0530,
99,0,99,0,276.03794989999733,,275.979917699995,10,276.03794989999733,276.03794989999733,0.03982459999679122,278.6279041999951,[-0.3333333333333333],[-0.4675925925925926],[1],[0],[0],[2.608535599996685],['Target'],,210692,001,2024-10-08_21h30.12.939,Visual Search Task_tutorial,2024.1.5,None,2024-10-08 21h30.20.946966 +0530,
100,0,100,0,278.68824949998816,,278.6326291999867,10,278.68824949998816,278.68824949998816,0.03909109999949578,281.543643699988,[-0.02962962962962963],[0.2712962962962963],[1],[0],[0],[2.8722739000077127],['Target'],,210692,001,2024-10-08_21h30.12.939,Visual Search Task_tutorial,2024.1.5,None,2024-10-08 21h30.20.946966 +0530,
101,0,101,0,281.58091029999196,,281.54885680000007,,281.58091029999196,281.58091029999196,0.020042599993757904,283.6401101999945,[-0.11018518518518519],[0.011111111111111112],[1],[0],[0],[2.071623499999987],['Target'],5,210692,001,2024-10-08_21h30.12.939,Visual Search Task_tutorial,2024.1.5,None,2024-10-08 21h30.20.946966 +0530,
102,0,102,0,283.6776053999929,,283.6451015999919,,283.6776053999929,283.6776053999929,0.0197139999945648,286.7525329999917,[0.14722222222222223],[0.003703703703703704],[1],[0],[0],[3.088047600002028],['Target'],5,210692,001,2024-10-08_21h30.12.939,Visual Search Task_tutorial,2024.1.5,None,2024-10-08 21h30.20.946966 +0530,
103,0,103,0,286.79276799999934,,286.7576146999927,,286.79276799999934,286.79276799999934,0.021446800004923716,289.03413129999535,[0.008333333333333333],[-0.33611111111111114],[1],[0],[0],[2.255413499995484],['Target'],5,210692,001,2024-10-08_21h30.12.939,Visual Search Task_tutorial,2024.1.5,None,2024-10-08 21h30.20.946966 +0530,
104,0,104,0,289.0979619999998,,289.03893749999406,10,289.0979619999998,289.0979619999998,0.040094399999361485,291.7196275999886,[-0.21944444444444444],[0.29814814814814816],[1],[0],[0],[2.640987100006896],['Target'],,210692,001,2024-10-08_21h30.12.939,Visual Search Task_tutorial,2024.1.5,None,2024-10-08 21h30.20.946966 +0530,
105,0,105,0,291.7791346999875,,291.7244076999923,10,291.7791346999875,291.7791346999875,0.037935700005618855,294.23968119999336,[-0.29814814814814816],[-0.2972222222222222],[1],[0],[0],[2.477654699992854],['Target'],,210692,001,2024-10-08_21h30.12.939,Visual Search Task_tutorial,2024.1.5,None,2024-10-08 21h30.20.946966 +0530,
106,0,106,0,294.2771255999978,,294.2444140000007,,294.2771255999978,294.2771255999978,0.021578100000624545,296.07718169999134,[-0.041666666666666664],[0.03796296296296296],[1],[0],[0],[1.811641000007512],['Target'],5,210692,001,2024-10-08_21h30.12.939,Visual Search Task_tutorial,2024.1.5,None,2024-10-08 21h30.20.946966 +0530,
107,0,107,0,296.1140585999965,,296.0817795999901,,296.1140585999965,296.1140585999965,0.020221799990395084,297.9088892,[-0.1925925925925926],[-0.001851851851851852],[1],[0],[0],[1.8071709999931045],['Target'],5,210692,001,2024-10-08_21h30.12.939,Visual Search Task_tutorial,2024.1.5,None,2024-10-08 21h30.20.946966 +0530,
108,0,108,0,297.94728189999296,,297.91355879999173,,297.94728189999296,297.94728189999296,0.01944309999817051,300.3728712999873,[-0.028703703703703703],[-0.3768518518518518],[1],[0],[0],[2.4402851999911945],['Target'],5,210692,001,2024-10-08_21h30.12.939,Visual Search Task_tutorial,2024.1.5,None,2024-10-08 21h30.20.946966 +0530,
109,0,109,0,300.43371299999126,,300.37758419998863,10,300.43371299999126,300.43371299999126,0.03940650000004098,303.8727647999913,[-0.4601851851851852],[0.19907407407407407],[1],[0],[0],[3.4561526000034064],['Target'],,210692,001,2024-10-08_21h30.12.939,Visual Search Task_tutorial,2024.1.5,None,2024-10-08 21h30.20.946966 +0530,
110,0,110,0,303.9113559999969,,303.87797529999807,,303.9113559999969,303.9113559999969,0.02176089999557007,306.2847245999874,[0.0824074074074074],[0.4212962962962963],[1],[0],[0],[2.3853874999913387],['Target'],5,210692,001,2024-10-08_21h30.12.939,Visual Search Task_tutorial,2024.1.5,None,2024-10-08 21h30.20.946966 +0530,
111,0,111,0,306.320441799995,,306.289337899987,,306.320441799995,306.320441799995,0.018963399998028763,308.26587939998717,[-0.40370370370370373],[0.10277777777777777],[1],[0],[0],[1.9580219000054058],['Target'],5,210692,001,2024-10-08_21h30.12.939,Visual Search Task_tutorial,2024.1.5,None,2024-10-08 21h30.20.946966 +0530,
112,0,112,0,308.3041993999941,,308.27076959999977,,308.3041993999941,308.3041993999941,0.0206356999988202,310.164231799994,[-0.30462962962962964],[-0.004629629629629629],[1],[0],[0],[1.8733196999965003],['Target'],5,210692,001,2024-10-08_21h30.12.939,Visual Search Task_tutorial,2024.1.5,None,2024-10-08 21h30.20.946966 +0530,
113,0,113,0,310.201639299994,,310.1688809999905,,310.201639299994,310.201639299994,0.019895999997970648,312.9123355999909,[0.33425925925925926],[0.4740740740740741],[1],[0],[0],[2.7238369999977294],['Target'],5,210692,001,2024-10-08_21h30.12.939,Visual Search Task_tutorial,2024.1.5,None,2024-10-08 21h30.20.946966 +0530,
114,0,114,0,312.9500227999961,,312.91717739999876,,312.9500227999961,312.9500227999961,0.020959299989044666,315.8089906999958,[-0.4444444444444444],[0.175],[1],[0],[0],[2.8713136999867857],['Target'],5,210692,001,2024-10-08_21h30.12.939,Visual Search Task_tutorial,2024.1.5,None,2024-10-08 21h30.20.946966 +0530,
115,0,115,0,315.86839939998754,,315.81404259998817,10,315.86839939998754,315.86839939998754,0.03735230000165757,318.49030709998624,[0.1935185185185185],[0.005555555555555556],[1],[0],[0],[2.639280900009908],['Target'],,210692,001,2024-10-08_21h30.12.939,Visual Search Task_tutorial,2024.1.5,None,2024-10-08 21h30.20.946966 +0530,
116,0,116,0,318.52819819998695,,318.49516809999477,,318.52819819998695,318.52819819998695,0.02020009999978356,320.9047378999967,[0.18796296296296297],[-0.10185185185185185],[1],[0],[0],[2.389782099999138],['Target'],5,210692,001,2024-10-08_21h30.12.939,Visual Search Task_tutorial,2024.1.5,None,2024-10-08 21h30.20.946966 +0530,
117,0,117,0,320.9445202999923,,320.91119849999086,,320.9445202999923,320.9445202999923,0.02076640000450425,322.8527432999981,[-0.15],[-0.06111111111111111],[1],[0],[0],[1.9216957000026014],['Target'],5,210692,001,2024-10-08_21h30.12.939,Visual Search Task_tutorial,2024.1.5,None,2024-10-08 21h30.20.946966 +0530,
118,0,118,0,322.91269179999654,,322.8575487999915,10,322.91269179999654,322.91269179999654,0.0370861999981571,328.4720648999937,[-0.06851851851851852],[0.45740740740740743],[1],[0],[0],[5.577779700004612],['Target'],,210692,001,2024-10-08_21h30.12.939,Visual Search Task_tutorial,2024.1.5,None,2024-10-08 21h30.20.946966 +0530,
119,0,119,0,328.5097260999901,,328.4770196999889,,328.5097260999901,328.5097260999901,0.02043289999710396,330.78005779998784,[-0.06481481481481481],[0.07222222222222222],[1],[0],[0],[2.282721399998991],['Target'],5,210692,001,2024-10-08_21h30.12.939,Visual Search Task_tutorial,2024.1.5,None,2024-10-08 21h30.20.946966 +0530,
120,0,120,0,330.847597999993,,330.78704619999917,10,330.847597999993,330.847597999993,0.04242629998771008,332.7790130999929,[-0.11203703703703703],[0.1814814814814815],[1],[0],[0],[1.950465499990969],['Target'],,210692,001,2024-10-08_21h30.12.939,Visual Search Task_tutorial,2024.1.5,None,2024-10-08 21h30.20.946966 +0530,
121,0,121,0,332.8476345999952,,332.78406879999966,10,332.8476345999952,332.8476345999952,0.043834100011736155,335.43508779999684,[-0.10185185185185185],[-0.4444444444444444],[1],[0],[0],[2.607507100008661],['Target'],,210692,001,2024-10-08_21h30.12.939,Visual Search Task_tutorial,2024.1.5,None,2024-10-08 21h30.20.946966 +0530,
122,0,122,0,335.4955954999896,,335.43984789999377,10,335.4955954999896,335.4955954999896,0.03783020000264514,337.69339119999495,[-0.2898148148148148],[-0.17407407407407408],[1],[0],[0],[2.216029499992146],['Target'],,210692,001,2024-10-08_21h30.12.939,Visual Search Task_tutorial,2024.1.5,None,2024-10-08 21h30.20.946966 +0530,
123,0,123,0,337.75653669999156,,337.69829089999257,10,337.75653669999156,337.75653669999156,0.040762399992672727,343.4822230999998,[-0.1712962962962963],[0.4842592592592593],[1],[0],[0],[5.743640400003642],['Target'],,210692,001,2024-10-08_21h30.12.939,Visual Search Task_tutorial,2024.1.5,None,2024-10-08 21h30.20.946966 +0530,
124,0,124,0,343.5281221999903,,343.48770449998847,,343.5281221999903,343.5281221999903,0.025691000002552755,346.314764499999,[0.4685185185185185],[0.4305555555555556],[1],[0],[0],[2.801711799998884],['Target'],5,210692,001,2024-10-08_21h30.12.939,Visual Search Task_tutorial,2024.1.5,None,2024-10-08 21h30.20.946966 +0530,
125,0,125,0,346.3702742999885,,346.3182914999925,10,346.3702742999885,346.3702742999885,0.03638689999934286,349.0625080999889,[0.34814814814814815],[0.42685185185185187],[1],[0],[0],[2.7080370000039693],['Target'],,210692,001,2024-10-08_21h30.12.939,Visual Search Task_tutorial,2024.1.5,None,2024-10-08 21h30.20.946966 +0530,
126,0,126,0,349.1139833999914,,349.0663097999932,10,349.1139833999914,349.1139833999914,0.03384769998956472,351.6057856999978,[-0.30277777777777776],[0.13703703703703704],[1],[0],[0],[2.505757300008554],['Target'],,210692,001,2024-10-08_21h30.12.939,Visual Search Task_tutorial,2024.1.5,None,2024-10-08 21h30.20.946966 +0530,
127,0,127,0,351.6682287000003,,351.6108690999972,10,351.6682287000003,351.6682287000003,0.040260300011141226,354.61259099999734,[0.3148148148148148],[-0.05648148148148148],[1],[0],[0],[2.9617372999928193],['Target'],,210692,001,2024-10-08_21h30.12.939,Visual Search Task_tutorial,2024.1.5,None,2024-10-08 21h30.20.946966 +0530,
128,0,128,0,354.6490116999921,,354.617245299989,,354.6490116999921,354.6490116999921,0.019795699990936555,356.70562969999446,[0.11666666666666667],[0.2537037037037037],[1],[0],[0],[2.0690392999968026],['Target'],5,210692,001,2024-10-08_21h30.12.939,Visual Search Task_tutorial,2024.1.5,None,2024-10-08 21h30.20.946966 +0530,
129,0,129,0,356.7431366999954,,356.7103400999913,,356.7431366999954,356.7431366999954,0.020526599997538142,358.6713671999896,[-0.3888888888888889],[0.09166666666666666],[1],[0],[0],[1.940697000012733],['Target'],5,210692,001,2024-10-08_21h30.12.939,Visual Search Task_tutorial,2024.1.5,None,2024-10-08 21h30.20.946966 +0530,
130,0,130,0,358.7320180999959,,358.6765211999882,10,358.7320180999959,358.7320180999959,0.03780590000678785,361.51154139998835,[-0.13333333333333333],[-0.45092592592592595],[1],[0],[0],[2.7976303000032203],['Target'],,210692,001,2024-10-08_21h30.12.939,Visual Search Task_tutorial,2024.1.5,None,2024-10-08 21h30.20.946966 +0530,
131,0,131,0,361.5494020999904,,361.5163406999927,,361.5494020999904,361.5494020999904,0.020334500004537404,364.9998781999893,[0.3425925925925926],[0.1527777777777778],[1],[0],[0],[3.4636423000047216],['Target'],5,210692,001,2024-10-08_21h30.12.939,Visual Search Task_tutorial,2024.1.5,None,2024-10-08 21h30.20.946966 +0530,
132,0,132,0,365.06116459998884,,365.0048168999929,10,365.06116459998884,365.06116459998884,0.03956020000623539,367.02984739998647,[0.40185185185185185],[-0.09537037037037037],[1],[0],[0],[1.985888099996373],['Target'],,210692,001,2024-10-08_21h30.12.939,Visual Search Task_tutorial,2024.1.5,None,2024-10-08 21h30.20.946966 +0530,
133,0,133,0,367.09086689999094,,367.03453739998804,10,367.09086689999094,367.09086689999094,0.03828140000405256,369.4173468999943,[0.37962962962962965],[-0.09444444444444444],[1],[0],[0],[2.344876999995904],['Target'],,210692,001,2024-10-08_21h30.12.939,Visual Search Task_tutorial,2024.1.5,None,2024-10-08 21h30.20.946966 +0530,
134,0,134,0,369.45530919999874,,369.4232495999895,,369.45530919999874,369.45530919999874,0.01922480000939686,371.6421239999909,[0.1638888888888889],[0.42962962962962964],[1],[0],[0],[2.2000315000041155],['Target'],5,210692,001,2024-10-08_21h30.12.939,Visual Search Task_tutorial,2024.1.5,None,2024-10-08 21h30.20.946966 +0530,
135,0,135,0,371.6809485999984,,371.64683800000057,,371.6809485999984,371.6809485999984,0.02096329999039881,374.67238169998745,[0.14166666666666666],[0.4583333333333333],[1],[0],[0],[3.0048730000125943],['Target'],5,210692,001,2024-10-08_21h30.12.939,Visual Search Task_tutorial,2024.1.5,None,2024-10-08 21h30.20.946966 +0530,
136,0,136,0,374.7334344999981,,374.67725419999624,10,374.7334344999981,374.7334344999981,0.03982960000575986,377.3145809999987,[-0.08888888888888889],[0.08611111111111111],[1],[0],[0],[2.5979722999909427],['Target'],,210692,001,2024-10-08_21h30.12.939,Visual Search Task_tutorial,2024.1.5,None,2024-10-08 21h30.20.946966 +0530,
137,0,137,0,377.3501361999952,,377.3191778999899,,377.3501361999952,377.3501361999952,0.018933300001663156,379.27007039998716,[0.3138888888888889],[-0.22870370370370371],[1],[0],[0],[1.9322329999995418],['Target'],5,210692,001,2024-10-08_21h30.12.939,Visual Search Task_tutorial,2024.1.5,None,2024-10-08 21h30.20.946966 +0530,
138,0,138,0,379.30563839999377,,379.27462929999456,,379.30563839999377,379.30563839999377,0.018771400005789474,383.7807223999989,[-0.33425925925925926],[0.4935185185185185],[1],[0],[0],[4.48765569999523],['Target'],5,210692,001,2024-10-08_21h30.12.939,Visual Search Task_tutorial,2024.1.5,None,2024-10-08 21h30.20.946966 +0530,
139,0,139,0,383.81946079999034,,383.78560629999265,,383.81946079999034,383.81946079999034,0.019802199996775016,386.77809299998626,[-0.010185185185185186],[-0.1814814814814815],[1],[0],[0],[2.9730226999963634],['Target'],5,210692,001,2024-10-08_21h30.12.939,Visual Search Task_tutorial,2024.1.5,None,2024-10-08 21h30.20.946966 +0530,
140,0,140,0,386.8146725999977,,386.78274450000026,,386.8146725999977,386.8146725999977,0.020046999998157844,389.0421231999935,[0.3333333333333333],[-0.43333333333333335],[1],[0],[0],[2.2397606000013184],['Target'],5,210692,001,2024-10-08_21h30.12.939,Visual Search Task_tutorial,2024.1.5,None,2024-10-08 21h30.20.946966 +0530,
141,0,141,0,389.07917859999,,389.04705559999275,,389.07917859999,389.07917859999,0.019470899991574697,391.8902512999921,[-0.12314814814814815],[0.37037037037037035],[1],[0],[0],[2.8241275000036694],['Target'],5,210692,001,2024-10-08_21h30.12.939,Visual Search Task_tutorial,2024.1.5,None,2024-10-08 21h30.20.946966 +0530,
142,0,142,0,391.9630710999918,,391.89492339998833,10,391.9630710999918,391.9630710999918,0.03892239999549929,395.3967247999972,[-0.4648148148148148],[-0.2796296296296296],[1],[0],[0],[3.463415599995642],['Target'],,210692,001,2024-10-08_21h30.12.939,Visual Search Task_tutorial,2024.1.5,None,2024-10-08 21h30.20.946966 +0530,
143,0,143,0,395.4337869999872,,395.4013762999966,,395.4337869999872,395.4337869999872,0.020458400002098642,397.96822099998826,[0.025925925925925925],[-0.48333333333333334],[1],[0],[0],[2.546690299990587],['Target'],5,210692,001,2024-10-08_21h30.12.939,Visual Search Task_tutorial,2024.1.5,None,2024-10-08 21h30.20.946966 +0530,
144,0,144,0,398.03187549998984,,397.97304839998833,10,398.03187549998984,398.03187549998984,0.040628500006278045,400.665473999994,[-0.15648148148148147],[0.16018518518518518],[1],[0],[0],[2.6521871000004467],['Target'],,210692,001,2024-10-08_21h30.12.939,Visual Search Task_tutorial,2024.1.5,None,2024-10-08 21h30.20.946966 +0530,
145,0,145,0,400.70213759999024,,400.6701347999915,,400.70213759999024,400.70213759999024,0.01955199999792967,404.4127070999966,[0.35],[0.08055555555555556],[1],[0],[0],[3.7234011000109604],['Target'],5,210692,001,2024-10-08_21h30.12.939,Visual Search Task_tutorial,2024.1.5,None,2024-10-08 21h30.20.946966 +0530,
146,0,146,0,404.4499183999869,,404.4172840999963,,404.4499183999869,404.4499183999869,0.019137600000249222,407.1930694999901,[0.14814814814814814],[-0.125],[1],[0],[0],[2.757061900003464],['Target'],5,210692,001,2024-10-08_21h30.12.939,Visual Search Task_tutorial,2024.1.5,None,2024-10-08 21h30.20.946966 +0530,
147,0,147,0,407.2554350999999,,407.19774279999547,10,407.2554350999999,407.2554350999999,0.04049769999983255,409.9532295999961,[-0.4787037037037037],[0.020370370370370372],[1],[0],[0],[2.715361700000358],['Target'],,210692,001,2024-10-08_21h30.12.939,Visual Search Task_tutorial,2024.1.5,None,2024-10-08 21h30.20.946966 +0530,
148,0,148,0,410.01439469998877,,409.9580164999934,10,410.01439469998877,410.01439469998877,0.03948360000504181,414.13899809999566,[-0.12962962962962962],[0.4925925925925926],[1],[0],[0],[4.141917200002354],['Target'],,210692,001,2024-10-08_21h30.12.939,Visual Search Task_tutorial,2024.1.5,None,2024-10-08 21h30.20.946966 +0530,
149,0,149,0,414.19889529999637,,414.1436174999981,10,414.19889529999637,414.19889529999637,0.03953209999599494,416.1545985999983,[-0.25462962962962965],[-0.19074074074074074],[1],[0],[0],[1.9716655000083847],['Target'],,210692,001,2024-10-08_21h30.12.939,Visual Search Task_tutorial,2024.1.5,None,2024-10-08 21h30.20.946966 +0530,
150,0,150,0,416.1915480999887,,416.1593670000002,,416.1915480999887,416.1915480999887,0.019596900005126372,418.9157020999992,[0.462037037037037],[-0.058333333333333334],[1],[0],[0],[2.7371080000011716],['Target'],5,210692,001,2024-10-08_21h30.12.939,Visual Search Task_tutorial,2024.1.5,None,2024-10-08 21h30.20.946966 +0530,
151,0,151,0,418.97847919999913,,418.92034719999356,10,418.97847919999913,418.97847919999913,0.04110479999508243,421.2136651999899,[-0.2518518518518518],[-0.16296296296296298],[1],[0],[0],[2.2525347000046168],['Target'],,210692,001,2024-10-08_21h30.12.939,Visual Search Task_tutorial,2024.1.5,None,2024-10-08 21h30.20.946966 +0530,
152,0,152,0,421.2514162000007,,421.21826899998996,,421.2514162000007,421.2514162000007,0.02016300000832416,423.81123369999113,[-0.33240740740740743],[0.3416666666666667],[1],[0],[0],[2.5732430999923963],['Target'],5,210692,001,2024-10-08_21h30.12.939,Visual Search Task_tutorial,2024.1.5,None,2024-10-08 21h30.20.946966 +0530,
153,0,153,0,423.8743751000002,,423.81591919998755,10,423.8743751000002,423.8743751000002,0.03943960000469815,425.8264863999939,[-0.4666666666666667],[-0.15092592592592594],[1],[0],[0],[1.9715279999945778],['Target'],,210692,001,2024-10-08_21h30.12.939,Visual Search Task_tutorial,2024.1.5,None,2024-10-08 21h30.20.946966 +0530,
154,0,154,0,425.88676419999683,,425.8312508999952,10,425.88676419999683,425.88676419999683,0.039922700001625344,428.90476239999407,[0.03333333333333333],[0.1287037037037037],[1],[0],[0],[3.0338432999997167],['Target'],,210692,001,2024-10-08_21h30.12.939,Visual Search Task_tutorial,2024.1.5,None,2024-10-08 21h30.20.946966 +0530,
155,0,155,0,428.9654494999995,,428.9094111999875,10,428.9654494999995,428.9654494999995,0.0380077000008896,432.2314594999916,[0.37962962962962965],[-0.19537037037037036],[1],[0],[0],[3.284354400006123],['Target'],,210692,001,2024-10-08_21h30.12.939,Visual Search Task_tutorial,2024.1.5,None,2024-10-08 21h30.20.946966 +0530,
156,0,156,0,432.29573489999166,,432.23633739999786,10,432.29573489999166,432.29573489999166,0.03945320000639185,434.64294739998877,[0.47962962962962963],[0.07037037037037037],[1],[0],[0],[2.3676123000041116],['Target'],,210692,001,2024-10-08_21h30.12.939,Visual Search Task_tutorial,2024.1.5,None,2024-10-08 21h30.20.946966 +0530,
157,0,157,0,434.70428189999075,,434.64767279999796,10,434.70428189999075,434.70428189999075,0.039064099997631274,437.6651423000003,[0.025925925925925925],[-0.08796296296296297],[1],[0],[0],[2.978813400011859],['Target'],,210692,001,2024-10-08_21h30.12.939,Visual Search Task_tutorial,2024.1.5,None,2024-10-08 21h30.20.946966 +0530,
158,0,158,0,437.71901049998996,,437.66930649999995,10,437.71901049998996,437.71901049998996,0.034676800001761876,440.2984288999869,[-0.16018518518518518],[-0.17037037037037037],[1],[0],[0],[2.5947614000033354],['Target'],,210692,001,2024-10-08_21h30.12.939,Visual Search Task_tutorial,2024.1.5,None,2024-10-08 21h30.20.946966 +0530,
159,0,159,0,440.35888010000053,,440.3033035999979,10,440.35888010000053,440.35888010000053,0.03948510000191163,444.1091182999953,[0.275],[0.023148148148148147],[1],[0],[0],[3.7667968000023393],['Target'],,210692,001,2024-10-08_21h30.12.939,Visual Search Task_tutorial,2024.1.5,None,2024-10-08 21h30.20.946966 +0530,
160,0,160,0,444.1438352999976,,444.1133989999944,,444.1438352999976,444.1438352999976,0.01832000000285916,446.10802099999273,[-0.13518518518518519],[0.27037037037037037],[1],[0],[0],[1.9765006999950856],['Target'],5,210692,001,2024-10-08_21h30.12.939,Visual Search Task_tutorial,2024.1.5,None,2024-10-08 21h30.20.946966 +0530,
161,0,161,0,446.17333209999197,,446.1127424999868,10,446.17333209999197,446.17333209999197,0.04063339999993332,449.0258431999973,[0.48055555555555557],[-0.05462962962962963],[1],[0],[0],[2.872649700002512],['Target'],,210692,001,2024-10-08_21h30.12.939,Visual Search Task_tutorial,2024.1.5,None,2024-10-08 21h30.20.946966 +0530,
162,0,162,0,449.0863343999954,,449.0307056999882,10,449.0863343999954,449.0863343999954,0.03995019999274518,451.7863653999957,[-0.45925925925925926],[-0.0962962962962963],[1],[0],[0],[2.7161292000091635],['Target'],,210692,001,2024-10-08_21h30.12.939,Visual Search Task_tutorial,2024.1.5,None,2024-10-08 21h30.20.946966 +0530,
163,0,163,0,451.8240878999932,,451.7910133999976,,451.8240878999932,451.8240878999932,0.02067220000026282,454.0181859000004,[0.3907407407407407],[0.18796296296296297],[1],[0],[0],[2.207008900004439],['Target'],5,210692,001,2024-10-08_21h30.12.939,Visual Search Task_tutorial,2024.1.5,None,2024-10-08 21h30.20.946966 +0530,
164,0,164,0,454.07846459999564,,454.02287099999376,10,454.07846459999564,454.07846459999564,0.03842579999763984,456.4788775999914,[0.09351851851851851],[0.4648148148148148],[1],[0],[0],[2.417973300005542],['Target'],,210692,001,2024-10-08_21h30.12.939,Visual Search Task_tutorial,2024.1.5,None,2024-10-08 21h30.20.946966 +0530,
165,0,165,0,456.53880099998787,,456.4834998999868,10,456.53880099998787,456.53880099998787,0.03805180000199471,458.71865839998645,[0.019444444444444445],[-0.20833333333333334],[1],[0],[0],[2.1975206000061007],['Target'],,210692,001,2024-10-08_21h30.12.939,Visual Search Task_tutorial,2024.1.5,None,2024-10-08 21h30.20.946966 +0530,
166,0,166,0,458.7565187,,458.72334889999183,,458.7565187,458.7565187,0.021114499992108904,461.74362909999036,[0.4740740740740741],[0.2935185185185185],[1],[0],[0],[2.999564099998679],['Target'],5,210692,001,2024-10-08_21h30.12.939,Visual Search Task_tutorial,2024.1.5,None,2024-10-08 21h30.20.946966 +0530,
167,0,167,0,461.78000909999537,,461.74812089999614,,461.78000909999537,461.78000909999537,0.019758199996431358,463.87511129998893,[0.1388888888888889],[0.3509259259259259],[1],[0],[0],[2.1076032999990275],['Target'],5,210692,001,2024-10-08_21h30.12.939,Visual Search Task_tutorial,2024.1.5,None,2024-10-08 21h30.20.946966 +0530,
168,0,168,0,463.9373697999981,,463.87988049999694,10,463.9373697999981,463.9373697999981,0.038298700004816055,466.1849424999964,[0.17592592592592593],[0.02962962962962963],[1],[0],[0],[2.2670835000026273],['Target'],,210692,001,2024-10-08_21h30.12.939,Visual Search Task_tutorial,2024.1.5,None,2024-10-08 21h30.20.946966 +0530,
169,0,169,0,466.22198459999345,,466.18955819999974,,466.22198459999345,466.22198459999345,0.01991069999348838,468.3379303999973,[-0.30833333333333335],[0.1685185185185185],[1],[0],[0],[2.128876799994032],['Target'],5,210692,001,2024-10-08_21h30.12.939,Visual Search Task_tutorial,2024.1.5,None,2024-10-08 21h30.20.946966 +0530,
170,0,170,0,468.3756521999894,,468.34298449999187,,468.3756521999894,468.3756521999894,0.020012000008136965,470.35282429998915,[-0.07685185185185185],[-0.10555555555555556],[1],[0],[0],[1.9905667999992147],['Target'],5,210692,001,2024-10-08_21h30.12.939,Visual Search Task_tutorial,2024.1.5,None,2024-10-08 21h30.20.946966 +0530,
171,0,171,0,470.41618849999213,,470.357494099997,10,470.41618849999213,470.41618849999213,0.04183940000075381,472.5704614999995,[-0.3824074074074074],[0.4666666666666667],[1],[0],[0],[2.1714553000056185],['Target'],,210692,001,2024-10-08_21h30.12.939,Visual Search Task_tutorial,2024.1.5,None,2024-10-08 21h30.20.946966 +0530,
172,0,172,0,472.60624069999903,,472.57511449999583,,472.60624069999903,472.60624069999903,0.019170300001860596,474.4658350999962,[-0.006481481481481481],[0.2962962962962963],[1],[0],[0],[1.871910800007754],['Target'],5,210692,001,2024-10-08_21h30.12.939,Visual Search Task_tutorial,2024.1.5,None,2024-10-08 21h30.20.946966 +0530,
173,0,173,0,474.5275071999931,,474.4706353999936,10,474.5275071999931,474.5275071999931,0.040672999995877035,478.3749966999894,[0.08611111111111111],[0.4759259259259259],[1],[0],[0],[3.863973799991072],['Target'],,210692,001,2024-10-08_21h30.12.939,Visual Search Task_tutorial,2024.1.5,None,2024-10-08 21h30.20.946966 +0530,
174,0,174,0,478.4118526999955,,478.38028849998955,,478.4118526999955,478.4118526999955,0.019588900002418086,480.7103320999886,[-0.3212962962962963],[-0.35462962962962963],[1],[0],[0],[2.3108305999921868],['Target'],5,210692,001,2024-10-08_21h30.12.939,Visual Search Task_tutorial,2024.1.5,None,2024-10-08 21h30.20.946966 +0530,
175,0,175,0,480.7730836999981,,480.7150234999863,10,480.7730836999981,480.7730836999981,0.04068299999926239,483.11301059999096,[0.4564814814814815],[0.18333333333333332],[1],[0],[0],[2.357679200009443],['Target'],,210692,001,2024-10-08_21h30.12.939,Visual Search Task_tutorial,2024.1.5,None,2024-10-08 21h30.20.946966 +0530,
176,0,176,0,483.15029039999354,,483.1177793999959,,483.15029039999354,483.15029039999354,0.020201399995130487,485.1729437999893,[0.1111111111111111],[-0.43333333333333335],[1],[0],[0],[2.0352578000020003],['Target'],5,210692,001,2024-10-08_21h30.12.939,Visual Search Task_tutorial,2024.1.5,None,2024-10-08 21h30.20.946966 +0530,
177,0,177,0,485.2403123999975,,485.1778828999959,10,485.2403123999975,485.2403123999975,0.042542900002445094,488.3979890999908,[-0.24351851851851852],[-0.45],[1],[0],[0],[3.1780712000036146],['Target'],,210692,001,2024-10-08_21h30.12.939,Visual Search Task_tutorial,2024.1.5,None,2024-10-08 21h30.20.946966 +0530,
178,0,178,0,488.4619043999992,,488.40289729999495,10,488.4619043999992,488.4619043999992,0.041502599997329526,491.5101527999941,[-0.18703703703703703],[-0.3435185185185185],[1],[0],[0],[3.065945800000918],['Target'],,210692,001,2024-10-08_21h30.12.939,Visual Search Task_tutorial,2024.1.5,None,2024-10-08 21h30.20.946966 +0530,
179,0,179,0,491.57215519998863,,491.515161599993,10,491.57215519998863,491.57215519998863,0.0397718000021996,493.68249639999704,[-0.24259259259259258],[-0.4444444444444444],[1],[0],[0],[2.1280085000034887],['Target'],,210692,001,2024-10-08_21h30.12.939,Visual Search Task_tutorial,2024.1.5,None,2024-10-08 21h30.20.946966 +0530,
180,0,180,0,493.7319681999943,,493.6860912999982,10,493.7319681999943,493.7319681999943,0.03140000000712462,496.01416439999593,[0.03333333333333333],[-0.17962962962962964],[1],[0],[0],[2.296849899998051],['Target'],,210692,001,2024-10-08_21h30.12.939,Visual Search Task_tutorial,2024.1.5,None,2024-10-08 21h30.20.946966 +0530,
181,0,181,0,496.0726874999964,,496.0185888999986,10,496.0726874999964,496.0726874999964,0.03746560000581667,499.6512711999967,[-0.45555555555555555],[-0.16666666666666666],[1],[0],[0],[3.595624699999462],['Target'],,210692,001,2024-10-08_21h30.12.939,Visual Search Task_tutorial,2024.1.5,None,2024-10-08 21h30.20.946966 +0530,
182,0,182,0,499.7110837999935,,499.65596189998905,10,499.7110837999935,499.7110837999935,0.03823330000159331,503.372340899994,[0.175],[0.3731481481481482],[1],[0],[0],[3.6785624000040116],['Target'],,210692,001,2024-10-08_21h30.12.939,Visual Search Task_tutorial,2024.1.5,None,2024-10-08 21h30.20.946966 +0530,
183,0,183,0,503.40688739999314,,503.376526299995,,503.40688739999314,503.40688739999314,0.018131599994376302,505.30406309998943,[0.18796296296296297],[0.1638888888888889],[1],[0],[0],[1.9096812000061618],['Target'],5,210692,001,2024-10-08_21h30.12.939,Visual Search Task_tutorial,2024.1.5,None,2024-10-08 21h30.20.946966 +0530,
184,0,184,0,505.3662040999916,,505.3094989999954,10,505.3662040999916,505.3662040999916,0.03877279999142047,508.2087438999879,[-0.3074074074074074],[0.25555555555555554],[1],[0],[0],[2.860826999996789],['Target'],,210692,001,2024-10-08_21h30.12.939,Visual Search Task_tutorial,2024.1.5,None,2024-10-08 21h30.20.946966 +0530,
185,0,185,0,508.27019989999826,,508.2134815999889,10,508.27019989999826,508.27019989999826,0.039642399991862476,510.54181969999627,[0.14814814814814814],[-0.1037037037037037],[1],[0],[0],[2.2890164999989793],['Target'],,210692,001,2024-10-08_21h30.12.939,Visual Search Task_tutorial,2024.1.5,None,2024-10-08 21h30.20.946966 +0530,
186,0,186,0,510.6010615999985,,510.54653799999505,10,510.6010615999985,510.6010615999985,0.0367514000099618,513.4698593999929,[0.06666666666666667],[-0.43425925925925923],[1],[0],[0],[2.8869516999984626],['Target'],,210692,001,2024-10-08_21h30.12.939,Visual Search Task_tutorial,2024.1.5,None,2024-10-08 21h30.20.946966 +0530,
187,0,187,0,513.5327812999894,,513.4746362999867,10,513.5327812999894,513.5327812999894,0.04067200000281446,515.7488768999901,[0.16296296296296298],[-0.15092592592592594],[1],[0],[0],[2.234061399998609],['Target'],,210692,001,2024-10-08_21h30.12.939,Visual Search Task_tutorial,2024.1.5,None,2024-10-08 21h30.20.946966 +0530,
188,0,188,0,515.8095309999917,,515.75445149999,10,515.8095309999917,515.8095309999917,0.038667599990731105,517.8758275999862,[0.3111111111111111],[0.3768518518518518],[1],[0],[0],[2.0831614999915473],['Target'],,210692,001,2024-10-08_21h30.12.939,Visual Search Task_tutorial,2024.1.5,None,2024-10-08 21h30.20.946966 +0530,
189,0,189,0,517.9095929999894,,517.8796737999946,,517.9095929999894,517.9095929999894,0.017186199998832308,520.1902865999873,[-0.06388888888888888],[0.05462962962962963],[1],[0],[0],[2.293697600005544],['Target'],5,210692,001,2024-10-08_21h30.12.939,Visual Search Task_tutorial,2024.1.5,None,2024-10-08 21h30.20.946966 +0530,
190,0,190,0,520.2519194999913,,520.1949972000002,10,520.2519194999913,520.2519194999913,0.039372800005367026,522.1110487999977,[-0.1361111111111111],[-0.15092592592592594],[1],[0],[0],[1.8770802000071853],['Target'],,210692,001,2024-10-08_21h30.12.939,Visual Search Task_tutorial,2024.1.5,None,2024-10-08 21h30.20.946966 +0530,
191,0,191,0,522.1724125999899,,522.1162287999905,10,522.1724125999899,522.1724125999899,0.039206000001286156,524.7493147999921,[0.487962962962963],[-0.09814814814814815],[1],[0],[0],[2.594413099999656],['Target'],,210692,001,2024-10-08_21h30.12.939,Visual Search Task_tutorial,2024.1.5,None,2024-10-08 21h30.20.946966 +0530,
192,0,192,0,524.8113191999873,,524.7540211999876,10,524.8113191999873,524.8113191999873,0.040040899999439716,527.027147899993,[0.011111111111111112],[-0.45092592592592595],[1],[0],[0],[2.2335129999992205],['Target'],,210692,001,2024-10-08_21h30.12.939,Visual Search Task_tutorial,2024.1.5,None,2024-10-08 21h30.20.946966 +0530,
193,0,193,0,527.0661401999969,,527.0326055999903,,527.0661401999969,527.0661401999969,0.021746700003859587,529.3825579999975,[0.003703703703703704],[0.27314814814814814],[1],[0],[0],[2.3292882999958238],['Target'],5,210692,001,2024-10-08_21h30.12.939,Visual Search Task_tutorial,2024.1.5,None,2024-10-08 21h30.20.946966 +0530,
194,0,194,0,529.4220003999944,,529.387244499987,,529.4220003999944,529.4220003999944,0.021072799994726665,532.0809040999884,[0.2796296296296296],[-0.3194444444444444],[1],[0],[0],[2.6727720000053523],['Target'],5,210692,001,2024-10-08_21h30.12.939,Visual Search Task_tutorial,2024.1.5,None,2024-10-08 21h30.20.946966 +0530,
195,0,195,0,532.1183638999937,,532.0856047999987,,532.1183638999937,532.1183638999937,0.01979729998856783,533.9288281999907,[-0.29907407407407405],[0.011111111111111112],[1],[0],[0],[1.8235643999942113],['Target'],5,210692,001,2024-10-08_21h30.12.939,Visual Search Task_tutorial,2024.1.5,None,2024-10-08 21h30.20.946966 +0530,
196,0,196,0,533.9673650999903,,533.9334709999966,,533.9673650999903,533.9673650999903,0.020346999997855164,541.0031407999923,[-0.22685185185185186],[-0.35185185185185186],[1],[0],[0],[7.049263599998085],['Target'],5,210692,001,2024-10-08_21h30.12.939,Visual Search Task_tutorial,2024.1.5,None,2024-10-08 21h30.20.946966 +0530,
197,0,197,0,541.0446443999972,,541.0113438999979,,541.0446443999972,541.0446443999972,0.020286300001316704,543.7858448999905,[0.12777777777777777],[0.15833333333333333],[1],[0],[0],[2.754994800008717],['Target'],5,210692,001,2024-10-08_21h30.12.939,Visual Search Task_tutorial,2024.1.5,None,2024-10-08 21h30.20.946966 +0530,
198,0,198,0,543.8476194999967,,543.7906297999871,10,543.8476194999967,543.8476194999967,0.03840810000838246,546.4373949999863,[0.3],[-0.43148148148148147],[1],[0],[0],[2.6088505999941844],['Target'],,210692,001,2024-10-08_21h30.12.939,Visual Search Task_tutorial,2024.1.5,None,2024-10-08 21h30.20.946966 +0530,
199,0,199,0,546.4753950999875,,546.4420760999928,,546.4753950999875,546.4753950999875,0.020706200011773035,548.1649372999964,[-0.12037037037037036],[0.09074074074074075],[1],[0],[0],[1.702446900002542],['Target'],5,210692,001,2024-10-08_21h30.12.939,Visual Search Task_tutorial,2024.1.5,None,2024-10-08 21h30.20.946966 +0530,
