trials.thisRepN,trials.thisTrialN,trials.thisN,trials.thisIndex,thisRow.t,notes,trial.started,num_distr,Fixation.started,Target.started,mouse.started,trial.stopped,mouse.x,mouse.y,mouse.leftButton,mouse.midButton,mouse.rightButton,mouse.time,mouse.clicked_name,num_distr&,participant,session,date,expName,psychopyVersion,frameRate,expStart,
0,0,0,0,0.20038659998681396,,0.15044830000260845,5,0.20038659998681396,0.20038659998681396,0.1765476000146009,2.139795299997786,[-0.003703703703703704],[-0.06388888888888888],[1],[0],[0],[1.962366199993994],['Target'],,329676,001,2024-10-06_23h31.34.609,Visual Search Task_tutorial,2024.1.5,None,2024-10-06 23h31.44.681191 +0530,
1,0,1,0,2.1913683000020683,,2.1457875999913085,,2.1913683000020683,2.1913683000020683,0.030860899976687506,3.752134299982572,[0.32407407407407407],[0.1175925925925926],[1],[0],[0],[1.5755352000123821],['Target'],10,329676,001,2024-10-06_23h31.34.609,Visual Search Task_tutorial,2024.1.5,None,2024-10-06 23h31.44.681191 +0530,
2,0,2,0,3.8093349999981,,3.756056499987608,,3.8093349999981,3.8093349999981,0.03680269999313168,5.8829824999847915,[0.04814814814814815],[-0.46574074074074073],[1],[0],[0],[2.090523500024574],['Target'],10,329676,001,2024-10-06_23h31.34.609,Visual Search Task_tutorial,2024.1.5,None,2024-10-06 23h31.44.681191 +0530,
3,0,3,0,5.93478640000103,,5.886867799999891,,5.93478640000103,5.93478640000103,0.03251479999744333,7.217725399998017,[0.2962962962962963],[0.24351851851851852],[1],[0],[0],[1.2984904000186361],['Target'],10,329676,001,2024-10-06_23h31.34.609,Visual Search Task_tutorial,2024.1.5,None,2024-10-06 23h31.44.681191 +0530,
4,0,4,0,7.260671199997887,,7.221272700000554,5,7.260671199997887,7.260671199997887,0.022795299999415874,8.848027100000763,[0.026851851851851852],[-0.3212962962962963],[1],[0],[0],[1.6037470999872312],['Target'],,329676,001,2024-10-06_23h31.34.609,Visual Search Task_tutorial,2024.1.5,None,2024-10-06 23h31.44.681191 +0530,
5,0,5,0,8.879628599999705,,8.85144189998391,5,8.879628599999705,8.879628599999705,0.016531400004168972,10.745575999986613,[0.4101851851851852],[0.37037037037037035],[1],[0],[0],[1.8776049999869429],['Target'],,329676,001,2024-10-06_23h31.34.609,Visual Search Task_tutorial,2024.1.5,None,2024-10-06 23h31.44.681191 +0530,
6,0,6,0,10.786837699997704,,10.750407199986512,5,10.786837699997704,10.786837699997704,0.022882799996295944,12.294329299998935,[0.22962962962962963],[-0.36018518518518516],[1],[0],[0],[1.5214406000159215],['Target'],,329676,001,2024-10-06_23h31.34.609,Visual Search Task_tutorial,2024.1.5,None,2024-10-06 23h31.44.681191 +0530,
7,0,7,0,12.33199439998134,,12.299011800001608,5,12.33199439998134,12.33199439998134,0.02011289997608401,13.826423399994383,[-0.43703703703703706],[-0.32685185185185184],[1],[0],[0],[1.5076410000037868],['Target'],,329676,001,2024-10-06_23h31.34.609,Visual Search Task_tutorial,2024.1.5,None,2024-10-06 23h31.44.681191 +0530,
8,0,8,0,13.889087199990172,,13.831237799982773,,13.889087199990172,13.889087199990172,0.040094500000122935,15.43438559997594,[0.31203703703703706],[0.35185185185185186],[1],[0],[0],[1.5634883000166155],['Target'],10,329676,001,2024-10-06_23h31.34.609,Visual Search Task_tutorial,2024.1.5,None,2024-10-06 23h31.44.681191 +0530,
9,0,9,0,15.503905699995812,,15.439196599996649,,15.503905699995812,15.503905699995812,0.041534399992087856,16.623807700001635,[0.022222222222222223],[0.30925925925925923],[1],[0],[0],[1.1434042000037152],['Target'],10,329676,001,2024-10-06_23h31.34.609,Visual Search Task_tutorial,2024.1.5,None,2024-10-06 23h31.44.681191 +0530,
10,0,10,0,16.6644241999893,,16.629258699977072,5,16.6644241999893,16.6644241999893,0.022700300003634766,17.905957499984652,[-0.3537037037037037],[0.02962962962962963],[1],[0],[0],[1.25497889998951],['Target'],,329676,001,2024-10-06_23h31.34.609,Visual Search Task_tutorial,2024.1.5,None,2024-10-06 23h31.44.681191 +0530,
11,0,11,0,17.965396299987333,,17.910692099976586,,17.965396299987333,17.965396299987333,0.03773969999747351,19.73568779998459,[-0.43425925925925923],[-0.3148148148148148],[1],[0],[0],[1.7875602999993134],['Target'],10,329676,001,2024-10-06_23h31.34.609,Visual Search Task_tutorial,2024.1.5,None,2024-10-06 23h31.44.681191 +0530,
12,0,12,0,19.799250199983362,,19.74032620000071,,19.799250199983362,19.799250199983362,0.03946080000605434,21.128155699989293,[0.1824074074074074],[0.006481481481481481],[1],[0],[0],[1.3486553000111599],['Target'],10,329676,001,2024-10-06_23h31.34.609,Visual Search Task_tutorial,2024.1.5,None,2024-10-06 23h31.44.681191 +0530,
13,0,13,0,21.1681408000004,,21.13367599999765,5,21.1681408000004,21.1681408000004,0.021697000018320978,22.718718599993736,[0.4425925925925926],[0.4962962962962963],[1],[0],[0],[1.563902900001267],['Target'],,329676,001,2024-10-06_23h31.34.609,Visual Search Task_tutorial,2024.1.5,None,2024-10-06 23h31.44.681191 +0530,
14,0,14,0,22.782119399984367,,22.723656999995,,22.782119399984367,22.782119399984367,0.04105410000192933,24.398035499994876,[-0.2814814814814815],[0.4046296296296296],[1],[0],[0],[1.6336912999977358],['Target'],10,329676,001,2024-10-06_23h31.34.609,Visual Search Task_tutorial,2024.1.5,None,2024-10-06 23h31.44.681191 +0530,
15,0,15,0,24.469093399995472,,24.404455199983204,,24.469093399995472,24.469093399995472,0.04599949999828823,25.61201099999016,[-0.4324074074074074],[-0.006481481481481481],[1],[0],[0],[1.162207400018815],['Target'],10,329676,001,2024-10-06_23h31.34.609,Visual Search Task_tutorial,2024.1.5,None,2024-10-06 23h31.44.681191 +0530,
16,0,16,0,25.67228780000005,,25.61688079999294,,25.67228780000005,25.67228780000005,0.03709520000847988,26.748644299979787,[-0.1648148148148148],[0.2490740740740741],[1],[0],[0],[1.0950217999925371],['Target'],10,329676,001,2024-10-06_23h31.34.609,Visual Search Task_tutorial,2024.1.5,None,2024-10-06 23h31.44.681191 +0530,
17,0,17,0,26.784750299993902,,26.75342069999897,5,26.784750299993902,26.784750299993902,0.01961360001587309,27.848802099993918,[-0.45092592592592595],[-0.15],[1],[0],[0],[1.0762591999955475],['Target'],,329676,001,2024-10-06_23h31.34.609,Visual Search Task_tutorial,2024.1.5,None,2024-10-06 23h31.44.681191 +0530,
18,0,18,0,27.886729499994544,,27.853983799985144,5,27.886729499994544,27.886729499994544,0.02032020001206547,29.261884699983057,[0.14629629629629629],[-0.3925925925925926],[1],[0],[0],[1.3882509999966715],[],,329676,001,2024-10-06_23h31.34.609,Visual Search Task_tutorial,2024.1.5,None,2024-10-06 23h31.44.681191 +0530,
19,0,19,0,29.324856799998088,,29.267006499983836,,29.324856799998088,29.324856799998088,0.03953040001215413,30.815453599992907,[0.14814814814814814],[-0.45925925925925926],[1],[0],[0],[1.5092966000083834],['Target'],10,329676,001,2024-10-06_23h31.34.609,Visual Search Task_tutorial,2024.1.5,None,2024-10-06 23h31.44.681191 +0530,
20,0,20,0,30.879614499979652,,30.820455899985973,,30.879614499979652,30.879614499979652,0.04069660001550801,31.91343990000314,[0.1925925925925926],[0.017592592592592594],[1],[0],[0],[1.0525461999932304],['Target'],10,329676,001,2024-10-06_23h31.34.609,Visual Search Task_tutorial,2024.1.5,None,2024-10-06 23h31.44.681191 +0530,
21,0,21,0,31.97262149999733,,31.91824179998366,,31.97262149999733,31.97262149999733,0.038150599983055145,33.433936299989,[-0.39351851851851855],[0.31203703703703706],[1],[0],[0],[1.4778180999855977],['Target'],10,329676,001,2024-10-06_23h31.34.609,Visual Search Task_tutorial,2024.1.5,None,2024-10-06 23h31.44.681191 +0530,
22,0,22,0,33.49631449999288,,33.43893159998697,,33.49631449999288,33.49631449999288,0.03877779998583719,34.67281589997583,[0.11944444444444445],[0.3527777777777778],[1],[0],[0],[1.195449999999255],[],10,329676,001,2024-10-06_23h31.34.609,Visual Search Task_tutorial,2024.1.5,None,2024-10-06 23h31.44.681191 +0530,
23,0,23,0,34.735626099980436,,34.67779519999749,,34.735626099980436,34.735626099980436,0.04078730000765063,36.371409999992466,[0.42685185185185187],[-0.37962962962962965],[1],[0],[0],[1.653224500012584],['Target'],10,329676,001,2024-10-06_23h31.34.609,Visual Search Task_tutorial,2024.1.5,None,2024-10-06 23h31.44.681191 +0530,
24,0,24,0,36.411001799977385,,36.376238199998625,5,36.411001799977385,36.411001799977385,0.021694799972465262,37.57298179998179,[-0.05092592592592592],[-0.2861111111111111],[1],[0],[0],[1.17529299997841],['Target'],,329676,001,2024-10-06_23h31.34.609,Visual Search Task_tutorial,2024.1.5,None,2024-10-06 23h31.44.681191 +0530,
25,0,25,0,37.636784300004365,,37.57818899999256,,37.636784300004365,37.636784300004365,0.0410074999963399,39.5422336999909,[-0.1388888888888889],[0.43148148148148147],[1],[0],[0],[1.9232966999989003],['Target'],10,329676,001,2024-10-06_23h31.34.609,Visual Search Task_tutorial,2024.1.5,None,2024-10-06 23h31.44.681191 +0530,
26,0,26,0,39.58323580000433,,39.54716560000088,5,39.58323580000433,39.58323580000433,0.02294549997895956,40.88614609997603,[-0.3175925925925926],[0.25833333333333336],[1],[0],[0],[1.3165716000075918],['Target'],,329676,001,2024-10-06_23h31.34.609,Visual Search Task_tutorial,2024.1.5,None,2024-10-06 23h31.44.681191 +0530,
27,0,27,0,40.94858359999489,,40.89075339998817,,40.94858359999489,40.94858359999489,0.0407872999785468,42.102187899989076,[0.26851851851851855],[-0.23796296296296296],[1],[0],[0],[1.1710743999865372],['Target'],10,329676,001,2024-10-06_23h31.34.609,Visual Search Task_tutorial,2024.1.5,None,2024-10-06 23h31.44.681191 +0530,
28,0,28,0,42.16611379999085,,42.10754029999953,,42.16611379999085,42.16611379999085,0.042565699986880645,44.00031539998599,[0.3787037037037037],[0.49444444444444446],[1],[0],[0],[1.8508969999966212],['Target'],10,329676,001,2024-10-06_23h31.34.609,Visual Search Task_tutorial,2024.1.5,None,2024-10-06 23h31.44.681191 +0530,
29,0,29,0,44.06285950000165,,44.005059399991296,,44.06285950000165,44.06285950000165,0.03967130000819452,45.1535607999831,[0.26666666666666666],[0.3972222222222222],[1],[0],[0],[1.1091760000272188],['Target'],10,329676,001,2024-10-06_23h31.34.609,Visual Search Task_tutorial,2024.1.5,None,2024-10-06 23h31.44.681191 +0530,
30,0,30,0,45.193261299980804,,45.15826399999787,5,45.193261299980804,45.193261299980804,0.021110500005306676,46.99632360000396,[-0.3074074074074074],[-0.21574074074074073],[1],[0],[0],[1.817231900000479],['Target'],,329676,001,2024-10-06_23h31.34.609,Visual Search Task_tutorial,2024.1.5,None,2024-10-06 23h31.44.681191 +0530,
31,0,31,0,47.03437439998379,,47.00088730000425,5,47.03437439998379,47.03437439998379,0.020384300005389377,48.19475589998183,[-0.1287037037037037],[-0.10462962962962963],[1],[0],[0],[1.173897400003625],[],,329676,001,2024-10-06_23h31.34.609,Visual Search Task_tutorial,2024.1.5,None,2024-10-06 23h31.44.681191 +0530,
32,0,32,0,48.232886999991024,,48.19966149999527,5,48.232886999991024,48.232886999991024,0.020492800016654655,49.36138299998129,[0.33055555555555555],[0.2388888888888889],[1],[0],[0],[1.1417741999903228],['Target'],,329676,001,2024-10-06_23h31.34.609,Visual Search Task_tutorial,2024.1.5,None,2024-10-06 23h31.44.681191 +0530,
33,0,33,0,49.420357399998466,,49.36605569999665,,49.420357399998466,49.420357399998466,0.0366115000215359,50.77927089997684,[-0.05277777777777778],[0.3388888888888889],[1],[0],[0],[1.37699000001885],['Target'],10,329676,001,2024-10-06_23h31.34.609,Visual Search Task_tutorial,2024.1.5,None,2024-10-06 23h31.44.681191 +0530,
34,0,34,0,50.84180510000442,,50.78396669999347,,50.84180510000442,50.84180510000442,0.0402755000104662,51.964822099980665,[0.18425925925925926],[-0.1361111111111111],[1],[0],[0],[1.140936599986162],['Target'],10,329676,001,2024-10-06_23h31.34.609,Visual Search Task_tutorial,2024.1.5,None,2024-10-06 23h31.44.681191 +0530,
35,0,35,0,52.02528529998381,,51.97008929998265,,52.02528529998381,52.02528529998381,0.037648500001523644,53.380998299981,[0.005555555555555556],[-0.3472222222222222],[1],[0],[0],[1.3737866999872494],['Target'],10,329676,001,2024-10-06_23h31.34.609,Visual Search Task_tutorial,2024.1.5,None,2024-10-06 23h31.44.681191 +0530,
36,0,36,0,53.44307809998281,,53.38630589999957,,53.44307809998281,53.44307809998281,0.03986250000889413,54.71608099999139,[0.16944444444444445],[-0.3296296296296296],[1],[0],[0],[1.290317299979506],[],10,329676,001,2024-10-06_23h31.34.609,Visual Search Task_tutorial,2024.1.5,None,2024-10-06 23h31.44.681191 +0530,
37,0,37,0,54.7565405999776,,54.721193599980325,5,54.7565405999776,54.7565405999776,0.020758000027853996,56.30483189999359,[0.375],[-0.4166666666666667],[1],[0],[0],[1.5632044000085443],['Target'],,329676,001,2024-10-06_23h31.34.609,Visual Search Task_tutorial,2024.1.5,None,2024-10-06 23h31.44.681191 +0530,
38,0,38,0,56.364737299998524,,56.30961349999416,,56.364737299998524,56.364737299998524,0.03870140001527034,57.561788199993316,[0.14166666666666666],[0.15092592592592594],[1],[0],[0],[1.2138908999913838],[],10,329676,001,2024-10-06_23h31.34.609,Visual Search Task_tutorial,2024.1.5,None,2024-10-06 23h31.44.681191 +0530,
39,0,39,0,57.60417320000124,,57.56679539999459,5,57.60417320000124,57.60417320000124,0.022788000002037734,58.787152199976845,[0.4787037037037037],[0.29259259259259257],[1],[0],[0],[1.1978280000039376],['Target'],,329676,001,2024-10-06_23h31.34.609,Visual Search Task_tutorial,2024.1.5,None,2024-10-06 23h31.44.681191 +0530,
40,0,40,0,58.84579870000016,,58.79223589997855,,58.84579870000016,58.84579870000016,0.03729040001053363,60.22668189997785,[-0.412962962962963],[0.10462962962962963],[1],[0],[0],[1.3978708000213373],['Target'],10,329676,001,2024-10-06_23h31.34.609,Visual Search Task_tutorial,2024.1.5,None,2024-10-06 23h31.44.681191 +0530,
41,0,41,0,60.28694279998308,,60.2315258999879,,60.28694279998308,60.28694279998308,0.03791559999808669,62.15493209997658,[0.43148148148148147],[-0.19907407407407407],[1],[0],[0],[1.8858612999902107],['Target'],10,329676,001,2024-10-06_23h31.34.609,Visual Search Task_tutorial,2024.1.5,None,2024-10-06 23h31.44.681191 +0530,
42,0,42,0,62.19294079998508,,62.15957309998339,5,62.19294079998508,62.19294079998508,0.02116920001571998,65.21470939999563,[-0.018518518518518517],[0.010185185185185186],[1],[0],[0],[3.034317199984798],['Target'],,329676,001,2024-10-06_23h31.34.609,Visual Search Task_tutorial,2024.1.5,None,2024-10-06 23h31.44.681191 +0530,
43,0,43,0,65.27660660000402,,65.21960769998259,,65.27660660000402,65.27660660000402,0.04034750000573695,67.7354531000019,[0.41944444444444445],[-0.20277777777777778],[1],[0],[0],[2.4758314000209793],['Target'],10,329676,001,2024-10-06_23h31.34.609,Visual Search Task_tutorial,2024.1.5,None,2024-10-06 23h31.44.681191 +0530,
44,0,44,0,67.799008699978,,67.7405225999828,,67.799008699978,67.799008699978,0.04013040001154877,69.43397719998029,[0.23425925925925925],[0.10277777777777777],[1],[0],[0],[1.6537052000057884],['Target'],10,329676,001,2024-10-06_23h31.34.609,Visual Search Task_tutorial,2024.1.5,None,2024-10-06 23h31.44.681191 +0530,
45,0,45,0,69.50290439999662,,69.44033689997741,,69.50290439999662,69.50290439999662,0.04473540000617504,71.45347509998828,[-0.4861111111111111],[0.1],[1],[0],[0],[1.9689682000025641],['Target'],10,329676,001,2024-10-06_23h31.34.609,Visual Search Task_tutorial,2024.1.5,None,2024-10-06 23h31.44.681191 +0530,
46,0,46,0,71.4892669999972,,71.45810689998325,5,71.4892669999972,71.4892669999972,0.018989100004546344,72.82341419998556,[0.2759259259259259],[-0.21203703703703702],[1],[0],[0],[1.3465716000064276],['Target'],,329676,001,2024-10-06_23h31.34.609,Visual Search Task_tutorial,2024.1.5,None,2024-10-06 23h31.44.681191 +0530,
47,0,47,0,72.86240869999165,,72.82864599997993,5,72.86240869999165,72.86240869999165,0.0206387999933213,74.25556589997723,[0.20555555555555555],[0.1787037037037037],[1],[0],[0],[1.4066302000137512],['Target'],,329676,001,2024-10-06_23h31.34.609,Visual Search Task_tutorial,2024.1.5,None,2024-10-06 23h31.44.681191 +0530,
48,0,48,0,74.32044379998115,,74.26041779998923,,74.32044379998115,74.32044379998115,0.04202880000229925,75.79193119998672,[-0.4],[-0.175],[1],[0],[0],[1.4897619000112172],['Target'],10,329676,001,2024-10-06_23h31.34.609,Visual Search Task_tutorial,2024.1.5,None,2024-10-06 23h31.44.681191 +0530,
49,0,49,0,75.85059879999608,,75.79651829999057,,75.85059879999608,75.85059879999608,0.03778280000551604,77.37918599997647,[0.3907407407407407],[0.15555555555555556],[1],[0],[0],[1.5451698999968357],['Target'],10,329676,001,2024-10-06_23h31.34.609,Visual Search Task_tutorial,2024.1.5,None,2024-10-06 23h31.44.681191 +0530,
50,0,50,0,77.41582949997974,,77.38393829998677,5,77.41582949997974,77.41582949997974,0.01910070001031272,78.76941239999724,[0.3537037037037037],[0.48148148148148145],[1],[0],[0],[1.3666436999919824],['Target'],,329676,001,2024-10-06_23h31.34.609,Visual Search Task_tutorial,2024.1.5,None,2024-10-06 23h31.44.681191 +0530,
51,0,51,0,78.83298979999381,,78.77486499998486,,78.83298979999381,78.83298979999381,0.039901599986478686,80.52312129997881,[0.13148148148148148],[-0.06666666666666667],[1],[0],[0],[1.7087143000098877],['Target'],10,329676,001,2024-10-06_23h31.34.609,Visual Search Task_tutorial,2024.1.5,None,2024-10-06 23h31.44.681191 +0530,
52,0,52,0,80.5887055999774,,80.52800059999572,,80.5887055999774,80.5887055999774,0.04097259999252856,81.85634859997663,[-0.06481481481481481],[0.1111111111111111],[1],[0],[0],[1.2877434999973048],['Target'],10,329676,001,2024-10-06_23h31.34.609,Visual Search Task_tutorial,2024.1.5,None,2024-10-06 23h31.44.681191 +0530,
53,0,53,0,81.91311500000302,,81.86096239998005,,81.91311500000302,81.91311500000302,0.036257200001273304,83.48075609997613,[0.037037037037037035],[-0.4287037037037037],[1],[0],[0],[1.5838687000214122],['Target'],10,329676,001,2024-10-06_23h31.34.609,Visual Search Task_tutorial,2024.1.5,None,2024-10-06 23h31.44.681191 +0530,
54,0,54,0,83.51822009999887,,83.4858222999901,5,83.51822009999887,83.51822009999887,0.020458600018173456,85.29564430000028,[-0.1574074074074074],[0.23796296296296296],[1],[0],[0],[1.7896473000000697],['Target'],,329676,001,2024-10-06_23h31.34.609,Visual Search Task_tutorial,2024.1.5,None,2024-10-06 23h31.44.681191 +0530,
55,0,55,0,85.3605865999998,,85.30033269998967,,85.3605865999998,85.3605865999998,0.04172069998458028,86.88846819999162,[-0.4222222222222222],[-0.11018518518518519],[1],[0],[0],[1.5468163000186905],['Target'],10,329676,001,2024-10-06_23h31.34.609,Visual Search Task_tutorial,2024.1.5,None,2024-10-06 23h31.44.681191 +0530,
56,0,56,0,86.9507410999795,,86.89324079998187,,86.9507410999795,86.9507410999795,0.04055859998334199,88.61473669999395,[-0.4962962962962963],[0.2777777777777778],[1],[0],[0],[1.681347799982177],['Target'],10,329676,001,2024-10-06_23h31.34.609,Visual Search Task_tutorial,2024.1.5,None,2024-10-06 23h31.44.681191 +0530,
57,0,57,0,88.67612089999602,,88.62125719999312,,88.67612089999602,88.67612089999602,0.038593700010096654,89.9317347999895,[0.011111111111111112],[0.25555555555555554],[1],[0],[0],[1.272861900011776],['Target'],10,329676,001,2024-10-06_23h31.34.609,Visual Search Task_tutorial,2024.1.5,None,2024-10-06 23h31.44.681191 +0530,
58,0,58,0,89.99861039998359,,89.93706899997778,,89.99861039998359,89.99861039998359,0.04363230001763441,91.24263829999836,[-0.46574074074074073],[0.008333333333333333],[1],[0],[0],[1.2623364999890327],['Target'],10,329676,001,2024-10-06_23h31.34.609,Visual Search Task_tutorial,2024.1.5,None,2024-10-06 23h31.44.681191 +0530,
59,0,59,0,91.30178670000168,,91.24729669999215,,91.30178670000168,91.30178670000168,0.03793380002025515,92.89121599998907,[-0.18888888888888888],[-0.37037037037037035],[1],[0],[0],[1.6063425999891479],['Target'],10,329676,001,2024-10-06_23h31.34.609,Visual Search Task_tutorial,2024.1.5,None,2024-10-06 23h31.44.681191 +0530,
60,0,60,0,92.92745180000202,,92.89584359998116,5,92.92745180000202,92.92745180000202,0.019307800015667453,94.25425899997936,[0.3962962962962963],[0.09351851851851851],[1],[0],[0],[1.339454000000842],['Target'],,329676,001,2024-10-06_23h31.34.609,Visual Search Task_tutorial,2024.1.5,None,2024-10-06 23h31.44.681191 +0530,
61,0,61,0,94.31504029998905,,94.25906459998805,,94.31504029998905,94.31504029998905,0.039365500007988885,96.22481399998651,[-0.49444444444444446],[-0.3351851851851852],[1],[0],[0],[1.9267310999857727],['Target'],10,329676,001,2024-10-06_23h31.34.609,Visual Search Task_tutorial,2024.1.5,None,2024-10-06 23h31.44.681191 +0530,
62,0,62,0,96.28459009999642,,96.22970009999699,,96.28459009999642,96.28459009999642,0.03845169997657649,97.90555329999188,[0.23703703703703705],[-0.21296296296296297],[1],[0],[0],[1.6378947999910451],['Target'],10,329676,001,2024-10-06_23h31.34.609,Visual Search Task_tutorial,2024.1.5,None,2024-10-06 23h31.44.681191 +0530,
63,0,63,0,97.96413389997906,,97.91043849999551,,97.96413389997906,97.96413389997906,0.03622369997901842,99.69442159999744,[0.4212962962962963],[0.19537037037037036],[1],[0],[0],[1.748124799982179],['Target'],10,329676,001,2024-10-06_23h31.34.609,Visual Search Task_tutorial,2024.1.5,None,2024-10-06 23h31.44.681191 +0530,
64,0,64,0,99.73271179999574,,99.6991294999898,5,99.73271179999574,99.73271179999574,0.021479699993506074,101.16501959998277,[0.30185185185185187],[0.4064814814814815],[1],[0],[0],[1.4447712999826763],['Target'],,329676,001,2024-10-06_23h31.34.609,Visual Search Task_tutorial,2024.1.5,None,2024-10-06 23h31.44.681191 +0530,
65,0,65,0,101.22536339997896,,101.16962109997985,,101.22536339997896,101.22536339997896,0.037350500002503395,102.40561469999375,[-0.07777777777777778],[0.1638888888888889],[1],[0],[0],[1.199042099993676],['Target'],10,329676,001,2024-10-06_23h31.34.609,Visual Search Task_tutorial,2024.1.5,None,2024-10-06 23h31.44.681191 +0530,
66,0,66,0,102.46740080000018,,102.41069789999165,,102.46740080000018,102.46740080000018,0.03805959998862818,105.10379189997911,[0.013888888888888888],[0.44907407407407407],[1],[0],[0],[2.655336499999976],['Target'],10,329676,001,2024-10-06_23h31.34.609,Visual Search Task_tutorial,2024.1.5,None,2024-10-06 23h31.44.681191 +0530,
67,0,67,0,105.1656000999792,,105.10942110000178,,105.1656000999792,105.1656000999792,0.038177299982635304,106.28963439998915,[-0.05092592592592592],[0.29259259259259257],[1],[0],[0],[1.1424188000091817],['Target'],10,329676,001,2024-10-06_23h31.34.609,Visual Search Task_tutorial,2024.1.5,None,2024-10-06 23h31.44.681191 +0530,
68,0,68,0,106.34684429998742,,106.2944584999932,,106.34684429998742,106.34684429998742,0.03618480000295676,108.64779489999637,[0.12129629629629629],[0.45555555555555555],[1],[0],[0],[2.317525899998145],['Target'],10,329676,001,2024-10-06_23h31.34.609,Visual Search Task_tutorial,2024.1.5,None,2024-10-06 23h31.44.681191 +0530,
69,0,69,0,108.68514059999143,,108.65231730000232,5,108.68514059999143,108.68514059999143,0.019806700001936406,109.89056609998806,[-0.26944444444444443],[0.3685185185185185],[1],[0],[0],[1.2188071999989916],['Target'],,329676,001,2024-10-06_23h31.34.609,Visual Search Task_tutorial,2024.1.5,None,2024-10-06 23h31.44.681191 +0530,
70,0,70,0,109.92566969999461,,109.89539789999253,5,109.92566969999461,109.92566969999461,0.019026199996005744,111.10646989999805,[0.12222222222222222],[-0.06388888888888888],[1],[0],[0],[1.1923842999967746],['Target'],,329676,001,2024-10-06_23h31.34.609,Visual Search Task_tutorial,2024.1.5,None,2024-10-06 23h31.44.681191 +0530,
71,0,71,0,111.16762279998511,,111.11148209997918,,111.16762279998511,111.16762279998511,0.038763900025514886,112.33990329998778,[-0.07314814814814814],[-0.014814814814814815],[1],[0],[0],[1.1901900000229944],['Target'],10,329676,001,2024-10-06_23h31.34.609,Visual Search Task_tutorial,2024.1.5,None,2024-10-06 23h31.44.681191 +0530,
72,0,72,0,112.37856819998706,,112.34486620000098,5,112.37856819998706,112.37856819998706,0.02209640000364743,113.63720529997954,[-0.4722222222222222],[0.10277777777777777],[1],[0],[0],[1.270610100007616],['Target'],,329676,001,2024-10-06_23h31.34.609,Visual Search Task_tutorial,2024.1.5,None,2024-10-06 23h31.44.681191 +0530,
73,0,73,0,113.69919269997627,,113.64205739999306,,113.69919269997627,113.69919269997627,0.04087630001595244,115.00339909998002,[-0.1388888888888889],[0.3648148148148148],[1],[0],[0],[1.320808999997098],['Target'],10,329676,001,2024-10-06_23h31.34.609,Visual Search Task_tutorial,2024.1.5,None,2024-10-06 23h31.44.681191 +0530,
74,0,74,0,115.06523479998577,,115.00847229998908,,115.06523479998577,115.06523479998577,0.040550699981395155,116.32450289998087,[0.11574074074074074],[0.45185185185185184],[1],[0],[0],[1.275898000021698],[],10,329676,001,2024-10-06_23h31.34.609,Visual Search Task_tutorial,2024.1.5,None,2024-10-06 23h31.44.681191 +0530,
75,0,75,0,116.36122479999904,,116.32948679997935,5,116.36122479999904,116.36122479999904,0.020092700025998056,118.18162479999592,[0.16111111111111112],[-0.38425925925925924],[1],[0],[0],[1.8324618999904487],['Target'],,329676,001,2024-10-06_23h31.34.609,Visual Search Task_tutorial,2024.1.5,None,2024-10-06 23h31.44.681191 +0530,
76,0,76,0,118.22048960000393,,118.18665419999161,5,118.22048960000393,118.22048960000393,0.020815399999264628,119.83140569998068,[-0.03333333333333333],[-0.26481481481481484],[1],[0],[0],[1.6243763999955263],['Target'],,329676,001,2024-10-06_23h31.34.609,Visual Search Task_tutorial,2024.1.5,None,2024-10-06 23h31.44.681191 +0530,
77,0,77,0,119.89369959998294,,119.83613089998835,,119.89369959998294,119.89369959998294,0.03823150001699105,121.18664909998188,[0.30648148148148147],[-0.07222222222222222],[1],[0],[0],[1.3126953000028152],['Target'],10,329676,001,2024-10-06_23h31.34.609,Visual Search Task_tutorial,2024.1.5,None,2024-10-06 23h31.44.681191 +0530,
78,0,78,0,121.24613949999912,,121.19164559998899,,121.24613949999912,121.24613949999912,0.038287000003037974,123.0034358999983,[-0.34444444444444444],[0.4888888888888889],[1],[0],[0],[1.7738466000009794],['Target'],10,329676,001,2024-10-06_23h31.34.609,Visual Search Task_tutorial,2024.1.5,None,2024-10-06 23h31.44.681191 +0530,
79,0,79,0,123.06655249997857,,123.00846949999686,,123.06655249997857,123.06655249997857,0.041647300007753074,125.84497849998297,[0.05277777777777778],[-0.1175925925925926],[1],[0],[0],[2.7948206999863032],['Target'],10,329676,001,2024-10-06_23h31.34.609,Visual Search Task_tutorial,2024.1.5,None,2024-10-06 23h31.44.681191 +0530,
80,0,80,0,125.91343679997954,,125.85048419999657,,125.91343679997954,125.91343679997954,0.0464464999968186,127.66606829999364,[0.2037037037037037],[-0.3527777777777778],[1],[0],[0],[1.7695043999992777],['Target'],10,329676,001,2024-10-06_23h31.34.609,Visual Search Task_tutorial,2024.1.5,None,2024-10-06 23h31.44.681191 +0530,
81,0,81,0,127.70305899999221,,127.67088469999726,5,127.70305899999221,127.70305899999221,0.019995100010419264,129.33960619999561,[-0.010185185185185186],[-0.4675925925925926],[1],[0],[0],[1.648952499992447],['Target'],,329676,001,2024-10-06_23h31.34.609,Visual Search Task_tutorial,2024.1.5,None,2024-10-06 23h31.44.681191 +0530,
82,0,82,0,129.40168119998998,,129.34498419999727,,129.40168119998998,129.40168119998998,0.03935599999385886,131.0762261999771,[-0.13055555555555556],[0.15185185185185185],[1],[0],[0],[1.6922790000098757],['Target'],10,329676,001,2024-10-06_23h31.34.609,Visual Search Task_tutorial,2024.1.5,None,2024-10-06 23h31.44.681191 +0530,
83,0,83,0,131.113397899986,,131.08102059998782,5,131.113397899986,131.113397899986,0.019855799997458234,132.55290839998634,[0.2351851851851852],[-0.23148148148148148],[1],[0],[0],[1.4524506999878213],['Target'],,329676,001,2024-10-06_23h31.34.609,Visual Search Task_tutorial,2024.1.5,None,2024-10-06 23h31.44.681191 +0530,
84,0,84,0,132.61408489997848,,132.5579828999762,,132.61408489997848,132.61408489997848,0.03862870001466945,134.05897309997818,[0.11296296296296296],[0.2518518518518518],[1],[0],[0],[1.4626975000137463],['Target'],10,329676,001,2024-10-06_23h31.34.609,Visual Search Task_tutorial,2024.1.5,None,2024-10-06 23h31.44.681191 +0530,
85,0,85,0,134.11620759998914,,134.06361889999243,,134.11620759998914,134.11620759998914,0.0364218000031542,135.239702699997,[0.21296296296296297],[-0.1111111111111111],[1],[0],[0],[1.1397081000031903],['Target'],10,329676,001,2024-10-06_23h31.34.609,Visual Search Task_tutorial,2024.1.5,None,2024-10-06 23h31.44.681191 +0530,
86,0,86,0,135.2773183999816,,135.24447509998572,5,135.2773183999816,135.2773183999816,0.01930389998597093,136.682195100002,[0.03611111111111111],[0.2953703703703704],[1],[0],[0],[1.4189366000064183],['Target'],,329676,001,2024-10-06_23h31.34.609,Visual Search Task_tutorial,2024.1.5,None,2024-10-06 23h31.44.681191 +0530,
87,0,87,0,136.72010769997723,,136.6872285999998,5,136.72010769997723,136.72010769997723,0.020513499999651685,138.79812649998348,[0.3814814814814815],[0.44907407407407407],[1],[0],[0],[2.090534499991918],['Target'],,329676,001,2024-10-06_23h31.34.609,Visual Search Task_tutorial,2024.1.5,None,2024-10-06 23h31.44.681191 +0530,
88,0,88,0,138.88015679997625,,138.80377359999693,,138.88015679997625,138.88015679997625,0.044963099993765354,140.3595467999985,[0.10925925925925926],[0.3314814814814815],[1],[0],[0],[1.5116385000001173],['Target'],10,329676,001,2024-10-06_23h31.34.609,Visual Search Task_tutorial,2024.1.5,None,2024-10-06 23h31.44.681191 +0530,
89,0,89,0,140.42536500000278,,140.3649334999791,,140.42536500000278,140.42536500000278,0.03942229997483082,141.95429090000107,[-0.26296296296296295],[-0.05185185185185185],[1],[0],[0],[1.5505700999929104],['Target'],10,329676,001,2024-10-06_23h31.34.609,Visual Search Task_tutorial,2024.1.5,None,2024-10-06 23h31.44.681191 +0530,
90,0,90,0,141.99487829999998,,141.95920539999497,5,141.99487829999998,141.99487829999998,0.021906400012085214,143.81002999999328,[0.48518518518518516],[0.3490740740740741],[1],[0],[0],[1.8293881999852601],['Target'],,329676,001,2024-10-06_23h31.34.609,Visual Search Task_tutorial,2024.1.5,None,2024-10-06 23h31.44.681191 +0530,
91,0,91,0,143.84762220000266,,143.8149979999871,5,143.84762220000266,143.84762220000266,0.020531300018774346,145.72335279997787,[-0.3712962962962963],[-0.10648148148148148],[1],[0],[0],[1.888259699975606],['Target'],,329676,001,2024-10-06_23h31.34.609,Visual Search Task_tutorial,2024.1.5,None,2024-10-06 23h31.44.681191 +0530,
92,0,92,0,145.76124229998095,,145.72831239999505,5,145.76124229998095,145.76124229998095,0.020163799985311925,147.87134199999855,[-0.3212962962962963],[-0.4074074074074074],[1],[0],[0],[2.1232481000188272],['Target'],,329676,001,2024-10-06_23h31.34.609,Visual Search Task_tutorial,2024.1.5,None,2024-10-06 23h31.44.681191 +0530,
93,0,93,0,147.9081726000004,,147.87593409998226,5,147.9081726000004,147.9081726000004,0.0205052999954205,149.57136039997567,[-0.2675925925925926],[-0.13055555555555556],[1],[0],[0],[1.675124599976698],['Target'],,329676,001,2024-10-06_23h31.34.609,Visual Search Task_tutorial,2024.1.5,None,2024-10-06 23h31.44.681191 +0530,
94,0,94,0,149.6391362999857,,149.57817999998224,,149.6391362999857,149.6391362999857,0.04406149999704212,151.0638140999945,[-0.18611111111111112],[0.10925925925925926],[1],[0],[0],[1.4419065000256523],['Target'],10,329676,001,2024-10-06_23h31.34.609,Visual Search Task_tutorial,2024.1.5,None,2024-10-06 23h31.44.681191 +0530,
95,0,95,0,151.12602779999725,,151.0690537999908,,151.12602779999725,151.12602779999725,0.03943279999657534,152.9550397999992,[-0.49722222222222223],[-0.41574074074074074],[1],[0],[0],[1.8470514000218827],['Target'],10,329676,001,2024-10-06_23h31.34.609,Visual Search Task_tutorial,2024.1.5,None,2024-10-06 23h31.44.681191 +0530,
96,0,96,0,152.990648099978,,152.9596334999951,5,152.990648099978,152.990648099978,0.01878819998819381,154.89890430000378,[-0.06666666666666667],[0.4185185185185185],[1],[0],[0],[1.920896099996753],['Target'],,329676,001,2024-10-06_23h31.34.609,Visual Search Task_tutorial,2024.1.5,None,2024-10-06 23h31.44.681191 +0530,
97,0,97,0,154.96431759998086,,154.90435909997905,,154.96431759998086,154.96431759998086,0.04271170002175495,156.97827160000452,[-0.13240740740740742],[0.325],[1],[0],[0],[2.0315387999871746],['Target'],10,329676,001,2024-10-06_23h31.34.609,Visual Search Task_tutorial,2024.1.5,None,2024-10-06 23h31.44.681191 +0530,
98,0,98,0,157.01692880000337,,156.98310449998826,5,157.01692880000337,157.01692880000337,0.020765799999935552,159.29608810000354,[-0.17592592592592593],[-0.4787037037037037],[1],[0],[0],[2.2928289999836124],['Target'],,329676,001,2024-10-06_23h31.34.609,Visual Search Task_tutorial,2024.1.5,None,2024-10-06 23h31.44.681191 +0530,
99,0,99,0,159.35731049999595,,159.30116020000423,,159.35731049999595,159.35731049999595,0.03897839999990538,161.00392339998507,[0.2111111111111111],[-0.19074074074074074],[1],[0],[0],[1.6641103000147268],['Target'],10,329676,001,2024-10-06_23h31.34.609,Visual Search Task_tutorial,2024.1.5,None,2024-10-06 23h31.44.681191 +0530,
100,0,100,0,161.04181470000185,,161.00859959999798,5,161.04181470000185,161.04181470000185,0.02030970001942478,162.34270339997602,[0.2388888888888889],[-0.2833333333333333],[1],[0],[0],[1.3140973999979906],['Target'],,329676,001,2024-10-06_23h31.34.609,Visual Search Task_tutorial,2024.1.5,None,2024-10-06 23h31.44.681191 +0530,
101,0,101,0,162.40542999998434,,162.3473221999884,,162.40542999998434,162.40542999998434,0.040445800026645884,164.19647759999498,[-0.11388888888888889],[-0.3712962962962963],[1],[0],[0],[1.8090812000154983],['Target'],10,329676,001,2024-10-06_23h31.34.609,Visual Search Task_tutorial,2024.1.5,None,2024-10-06 23h31.44.681191 +0530,
102,0,102,0,164.25441819999833,,164.20134929998312,,164.25441819999833,164.25441819999833,0.03584619998582639,165.63663679998717,[0.07407407407407407],[0.07407407407407407],[1],[0],[0],[1.3995956999715418],['Target'],10,329676,001,2024-10-06_23h31.34.609,Visual Search Task_tutorial,2024.1.5,None,2024-10-06 23h31.44.681191 +0530,
103,0,103,0,165.67339959999663,,165.64147479998064,5,165.67339959999663,165.67339959999663,0.01905059997807257,167.32191859997693,[0.22407407407407406],[-0.23148148148148148],[1],[0],[0],[1.6617744000104722],['Target'],,329676,001,2024-10-06_23h31.34.609,Visual Search Task_tutorial,2024.1.5,None,2024-10-06 23h31.44.681191 +0530,
104,0,104,0,167.36049490000005,,167.32673179998528,5,167.36049490000005,167.36049490000005,0.020896300004096702,168.51989460000186,[-0.13055555555555556],[-0.1935185185185185],[1],[0],[0],[1.1726823000062723],['Target'],,329676,001,2024-10-06_23h31.34.609,Visual Search Task_tutorial,2024.1.5,None,2024-10-06 23h31.44.681191 +0530,
105,0,105,0,168.57909299997846,,168.52483189999475,,168.57909299997846,168.57909299997846,0.03732510001282208,169.98609669998405,[0.25833333333333336],[-0.17685185185185184],[1],[0],[0],[1.4242839999787975],[],10,329676,001,2024-10-06_23h31.34.609,Visual Search Task_tutorial,2024.1.5,None,2024-10-06 23h31.44.681191 +0530,
106,0,106,0,170.02394909999566,,169.99063159999787,5,170.02394909999566,170.02394909999566,0.019986100000096485,171.88410599998315,[-0.3435185185185185],[-0.2064814814814815],[1],[0],[0],[1.8738605999969877],['Target'],,329676,001,2024-10-06_23h31.34.609,Visual Search Task_tutorial,2024.1.5,None,2024-10-06 23h31.44.681191 +0530,
107,0,107,0,171.92186010000296,,171.88891829998465,5,171.92186010000296,171.92186010000296,0.020678500004578382,174.51529009998194,[-0.05092592592592592],[0.3388888888888889],[1],[0],[0],[2.6061090000148397],['Target'],,329676,001,2024-10-06_23h31.34.609,Visual Search Task_tutorial,2024.1.5,None,2024-10-06 23h31.44.681191 +0530,
108,0,108,0,174.55190379999112,,174.51979469999787,5,174.55190379999112,174.55190379999112,0.019990500004496425,176.51264539998374,[-0.375],[-0.25555555555555554],[1],[0],[0],[1.9732466000132263],['Target'],,329676,001,2024-10-06_23h31.34.609,Visual Search Task_tutorial,2024.1.5,None,2024-10-06 23h31.44.681191 +0530,
109,0,109,0,176.55097719997866,,176.51736679999158,5,176.55097719997866,176.55097719997866,0.02097199999843724,179.29390140000032,[0.25462962962962965],[-0.1787037037037037],[1],[0],[0],[2.755733300000429],['Target'],,329676,001,2024-10-06_23h31.34.609,Visual Search Task_tutorial,2024.1.5,None,2024-10-06 23h31.44.681191 +0530,
110,0,110,0,179.33367979998002,,179.29897179998807,5,179.33367979998002,179.33367979998002,0.020375899999635294,181.32564309998997,[0.040740740740740744],[-0.4722222222222222],[1],[0],[0],[2.006511799991131],['Target'],,329676,001,2024-10-06_23h31.34.609,Visual Search Task_tutorial,2024.1.5,None,2024-10-06 23h31.44.681191 +0530,
111,0,111,0,181.38463089999277,,181.3303492999985,,181.38463089999277,181.38463089999277,0.03736739998566918,182.91494309998234,[-0.037037037037037035],[0.37222222222222223],[1],[0],[0],[1.5476458000193816],['Target'],10,329676,001,2024-10-06_23h31.34.609,Visual Search Task_tutorial,2024.1.5,None,2024-10-06 23h31.44.681191 +0530,
112,0,112,0,182.9742403999844,,182.92240559999482,5,182.9742403999844,182.9742403999844,0.03238670001155697,184.57253899998614,[0.03611111111111111],[-0.11666666666666667],[1],[0],[0],[1.6185938999988139],['Target'],,329676,001,2024-10-06_23h31.34.609,Visual Search Task_tutorial,2024.1.5,None,2024-10-06 23h31.44.681191 +0530,
113,0,113,0,184.6074311999837,,184.57700479999767,5,184.6074311999837,184.6074311999837,0.019168099999660626,185.95432269998128,[-0.3814814814814815],[0.32314814814814813],[1],[0],[0],[1.358485600008862],['Target'],,329676,001,2024-10-06_23h31.34.609,Visual Search Task_tutorial,2024.1.5,None,2024-10-06 23h31.44.681191 +0530,
114,0,114,0,185.9957565999939,,185.95891600000323,5,185.9957565999939,185.9957565999939,0.02030120001290925,187.58653770000092,[-0.08333333333333333],[-0.075],[1],[0],[0],[1.6077234000258613],['Target'],,329676,001,2024-10-06_23h31.34.609,Visual Search Task_tutorial,2024.1.5,None,2024-10-06 23h31.44.681191 +0530,
115,0,115,0,187.65229959998396,,187.5915569999779,,187.65229959998396,187.65229959998396,0.04304459999548271,189.69524390000151,[-0.2111111111111111],[0.49166666666666664],[1],[0],[0],[2.0610131000285037],['Target'],10,329676,001,2024-10-06_23h31.34.609,Visual Search Task_tutorial,2024.1.5,None,2024-10-06 23h31.44.681191 +0530,
116,0,116,0,189.733731299988,,189.69998619999387,5,189.733731299988,189.733731299988,0.021113900002092123,191.3020233999996,[0.2972222222222222],[0.32685185185185184],[1],[0],[0],[1.5812954000139143],['Target'],,329676,001,2024-10-06_23h31.34.609,Visual Search Task_tutorial,2024.1.5,None,2024-10-06 23h31.44.681191 +0530,
117,0,117,0,191.3663183999888,,191.3081272999989,,191.3663183999888,191.3663183999888,0.040527000004658476,192.89494619998732,[0.06851851851851852],[-0.05740740740740741],[1],[0],[0],[1.546713700023247],['Target'],10,329676,001,2024-10-06_23h31.34.609,Visual Search Task_tutorial,2024.1.5,None,2024-10-06 23h31.44.681191 +0530,
118,0,118,0,192.95527559999027,,192.8995885999757,,192.95527559999027,192.95527559999027,0.038969999994151294,194.45524300000397,[-0.3287037037037037],[0.20833333333333334],[1],[0],[0],[1.5170493999903556],['Target'],10,329676,001,2024-10-06_23h31.34.609,Visual Search Task_tutorial,2024.1.5,None,2024-10-06 23h31.44.681191 +0530,
119,0,119,0,194.49268589998246,,194.4601690999989,5,194.49268589998246,194.49268589998246,0.020018700015498325,197.71130269998685,[-0.4166666666666667],[-0.4787037037037037],[1],[0],[0],[3.2315218999865465],['Target'],,329676,001,2024-10-06_23h31.34.609,Visual Search Task_tutorial,2024.1.5,None,2024-10-06 23h31.44.681191 +0530,
120,0,120,0,197.77146299998276,,197.71588439997868,,197.77146299998276,197.77146299998276,0.038198199996259063,199.50354340000194,[-0.2953703703703704],[0.17685185185185184],[1],[0],[0],[1.7496510999917518],['Target'],10,329676,001,2024-10-06_23h31.34.609,Visual Search Task_tutorial,2024.1.5,None,2024-10-06 23h31.44.681191 +0530,
121,0,121,0,199.54061840000213,,199.5081452000013,5,199.54061840000213,199.54061840000213,0.01982849999330938,200.90824429999338,[-0.13333333333333333],[-0.21388888888888888],[1],[0],[0],[1.3805361000122502],['Target'],,329676,001,2024-10-06_23h31.34.609,Visual Search Task_tutorial,2024.1.5,None,2024-10-06 23h31.44.681191 +0530,
122,0,122,0,200.9704324999766,,200.91461859998526,,200.9704324999766,200.9704324999766,0.040009799995459616,202.80259219999425,[0.21481481481481482],[-0.4546296296296296],[1],[0],[0],[1.8489614000136498],[],10,329676,001,2024-10-06_23h31.34.609,Visual Search Task_tutorial,2024.1.5,None,2024-10-06 23h31.44.681191 +0530,
123,0,123,0,202.8607423999929,,202.8072142000019,,202.8607423999929,202.8607423999929,0.0362856000137981,205.1190176999953,[-0.14166666666666666],[0.4935185185185185],[1],[0],[0],[2.2759044999838807],['Target'],10,329676,001,2024-10-06_23h31.34.609,Visual Search Task_tutorial,2024.1.5,None,2024-10-06 23h31.44.681191 +0530,
124,0,124,0,205.15729249999276,,205.12377899998683,5,205.15729249999276,205.15729249999276,0.019851699995342642,206.7040395999793,[-0.07037037037037037],[-0.2222222222222222],[1],[0],[0],[1.5609009000181686],['Target'],,329676,001,2024-10-06_23h31.34.609,Visual Search Task_tutorial,2024.1.5,None,2024-10-06 23h31.44.681191 +0530,
125,0,125,0,206.76678179998999,,206.70913400000427,,206.76678179998999,206.76678179998999,0.03918059999705292,208.2655268999806,[0.15648148148148147],[-0.025925925925925925],[1],[0],[0],[1.5176872999873012],['Target'],10,329676,001,2024-10-06_23h31.34.609,Visual Search Task_tutorial,2024.1.5,None,2024-10-06 23h31.44.681191 +0530,
126,0,126,0,208.30716129997745,,208.27022609999403,5,208.30716129997745,208.30716129997745,0.02298109998810105,209.9826003999915,[0.287962962962963],[0.425],[1],[0],[0],[1.6895309000101406],['Target'],,329676,001,2024-10-06_23h31.34.609,Visual Search Task_tutorial,2024.1.5,None,2024-10-06 23h31.44.681191 +0530,
127,0,127,0,210.04551499997615,,209.98765219998313,,210.04551499997615,210.04551499997615,0.039285600010771304,212.53262679997715,[0.3537037037037037],[-0.225],[1],[0],[0],[2.506108800007496],['Target'],10,329676,001,2024-10-06_23h31.34.609,Visual Search Task_tutorial,2024.1.5,None,2024-10-06 23h31.44.681191 +0530,
128,0,128,0,212.598070499982,,212.53751809999812,,212.598070499982,212.598070499982,0.04144079997786321,214.65783359998022,[-0.2388888888888889],[0.023148148148148147],[1],[0],[0],[2.0792974999931175],['Target'],10,329676,001,2024-10-06_23h31.34.609,Visual Search Task_tutorial,2024.1.5,None,2024-10-06 23h31.44.681191 +0530,
129,0,129,0,214.71794539998518,,214.66363009999623,,214.71794539998518,214.71794539998518,0.03805540001485497,216.24656349999714,[0.20462962962962963],[0.14166666666666666],[1],[0],[0],[1.5454604999977164],['Target'],10,329676,001,2024-10-06_23h31.34.609,Visual Search Task_tutorial,2024.1.5,None,2024-10-06 23h31.44.681191 +0530,
130,0,130,0,216.31851319997804,,216.25201539997943,,216.31851319997804,216.31851319997804,0.04640829999698326,217.82633609999903,[-0.27037037037037037],[0.36018518518518516],[1],[0],[0],[1.5283294999971986],['Target'],10,329676,001,2024-10-06_23h31.34.609,Visual Search Task_tutorial,2024.1.5,None,2024-10-06 23h31.44.681191 +0530,
131,0,131,0,217.86145009999746,,217.8308436999796,5,217.86145009999746,217.86145009999746,0.018879099981859326,219.6910605999874,[-0.39444444444444443],[-0.33425925925925926],[1],[0],[0],[1.8415275000152178],['Target'],,329676,001,2024-10-06_23h31.34.609,Visual Search Task_tutorial,2024.1.5,None,2024-10-06 23h31.44.681191 +0530,
132,0,132,0,219.7559977999772,,219.69587199998205,,219.7559977999772,219.7559977999772,0.04045970001607202,221.46341679999023,[-0.10185185185185185],[0.3175925925925926],[1],[0],[0],[1.7272415999905206],['Target'],10,329676,001,2024-10-06_23h31.34.609,Visual Search Task_tutorial,2024.1.5,None,2024-10-06 23h31.44.681191 +0530,
133,0,133,0,221.5235943000007,,221.4685406999779,,221.5235943000007,221.5235943000007,0.037357699999120086,223.0880714999803,[-0.2916666666666667],[-0.026851851851851852],[1],[0],[0],[1.5827358000096865],['Target'],10,329676,001,2024-10-06_23h31.34.609,Visual Search Task_tutorial,2024.1.5,None,2024-10-06 23h31.44.681191 +0530,
134,0,134,0,223.12968489999184,,223.0929067999823,5,223.12968489999184,223.12968489999184,0.021552400023210794,224.7687134000007,[-0.2824074074074074],[0.20925925925925926],[1],[0],[0],[1.6547265000117477],['Target'],,329676,001,2024-10-06_23h31.34.609,Visual Search Task_tutorial,2024.1.5,None,2024-10-06 23h31.44.681191 +0530,
135,0,135,0,224.8054323999968,,224.77331580000464,5,224.8054323999968,224.8054323999968,0.020277600007830188,226.41802219999954,[0.12129629629629629],[0.3962962962962963],[1],[0],[0],[1.6248546999995597],['Target'],,329676,001,2024-10-06_23h31.34.609,Visual Search Task_tutorial,2024.1.5,None,2024-10-06 23h31.44.681191 +0530,
136,0,136,0,226.4879011999874,,226.42540019997978,,226.4879011999874,226.4879011999874,0.0424258999992162,228.4884558999911,[-0.5037037037037037],[-0.18611111111111112],[1],[0],[0],[2.0215494000003673],['Target'],10,329676,001,2024-10-06_23h31.34.609,Visual Search Task_tutorial,2024.1.5,None,2024-10-06 23h31.44.681191 +0530,
137,0,137,0,228.55601719999686,,228.4933483999921,,228.55601719999686,228.55601719999686,0.042713699978776276,230.6755069999781,[0.46574074074074073],[0.21296296296296297],[1],[0],[0],[2.1400444000028074],['Target'],10,329676,001,2024-10-06_23h31.34.609,Visual Search Task_tutorial,2024.1.5,None,2024-10-06 23h31.44.681191 +0530,
138,0,138,0,230.7353157000034,,230.68002729999716,,230.7353157000034,230.7353157000034,0.03762419999111444,232.8150996999757,[-0.31851851851851853],[0.40370370370370373],[1],[0],[0],[2.09785419999389],['Target'],10,329676,001,2024-10-06_23h31.34.609,Visual Search Task_tutorial,2024.1.5,None,2024-10-06 23h31.44.681191 +0530,
139,0,139,0,232.87511699998868,,232.81985279999208,,232.87511699998868,232.87511699998868,0.038186099991435185,235.01922769998782,[0.23425925925925925],[-0.3138888888888889],[1],[0],[0],[2.161504199990304],['Target'],10,329676,001,2024-10-06_23h31.34.609,Visual Search Task_tutorial,2024.1.5,None,2024-10-06 23h31.44.681191 +0530,
140,0,140,0,235.08210979998694,,235.02478549999068,,235.08210979998694,235.08210979998694,0.03942650000681169,236.4561088999908,[0.0962962962962963],[0.24722222222222223],[1],[0],[0],[1.392278699990129],['Target'],10,329676,001,2024-10-06_23h31.34.609,Visual Search Task_tutorial,2024.1.5,None,2024-10-06 23h31.44.681191 +0530,
141,0,141,0,236.50040249997983,,236.4614083999768,5,236.50040249997983,236.50040249997983,0.023649700015084818,237.95839649997652,[0.30277777777777776],[-0.12777777777777777],[1],[0],[0],[1.47374609997496],['Target'],,329676,001,2024-10-06_23h31.34.609,Visual Search Task_tutorial,2024.1.5,None,2024-10-06 23h31.44.681191 +0530,
142,0,142,0,237.99677089997567,,237.96302989998367,5,237.99677089997567,237.99677089997567,0.021350600000005215,239.75510189999477,[-0.1814814814814815],[-0.44814814814814813],[1],[0],[0],[1.7710998999828007],['Target'],,329676,001,2024-10-06_23h31.34.609,Visual Search Task_tutorial,2024.1.5,None,2024-10-06 23h31.44.681191 +0530,
143,0,143,0,239.82220619998407,,239.76028819999192,,239.82220619998407,239.82220619998407,0.044538000016473234,241.53697719998308,[-0.24814814814814815],[-0.337037037037037],[1],[0],[0],[1.7324048999871593],['Target'],10,329676,001,2024-10-06_23h31.34.609,Visual Search Task_tutorial,2024.1.5,None,2024-10-06 23h31.44.681191 +0530,
144,0,144,0,241.57496139997966,,241.54168139997637,5,241.57496139997966,241.57496139997966,0.020394699997268617,243.0374293999921,[-0.20833333333333334],[0.387037037037037],[1],[0],[0],[1.4755273999762721],['Target'],,329676,001,2024-10-06_23h31.34.609,Visual Search Task_tutorial,2024.1.5,None,2024-10-06 23h31.44.681191 +0530,
145,0,145,0,243.09839949998423,,243.04242240000167,,243.09839949998423,243.09839949998423,0.03969060000963509,245.0713874999783,[0.3611111111111111],[-0.39444444444444443],[1],[0],[0],[1.9896684999985155],['Target'],10,329676,001,2024-10-06_23h31.34.609,Visual Search Task_tutorial,2024.1.5,None,2024-10-06 23h31.44.681191 +0530,
146,0,146,0,245.10749049999868,,245.07636009997805,5,245.10749049999868,245.10749049999868,0.019693000009283423,247.00015119998716,[-0.41574074074074074],[-0.38055555555555554],[1],[0],[0],[1.9044607999967411],['Target'],,329676,001,2024-10-06_23h31.34.609,Visual Search Task_tutorial,2024.1.5,None,2024-10-06 23h31.44.681191 +0530,
147,0,147,0,247.05904530000407,,247.00520419998793,,247.05904530000407,247.05904530000407,0.03805800000554882,249.74812279999605,[0.15648148148148147],[0.26666666666666666],[1],[0],[0],[2.7051486000127625],['Target'],10,329676,001,2024-10-06_23h31.34.609,Visual Search Task_tutorial,2024.1.5,None,2024-10-06 23h31.44.681191 +0530,
148,0,148,0,249.8167673999851,,249.75320239999564,,249.8167673999851,249.8167673999851,0.0367168000084348,251.1524322000041,[0.013888888888888888],[0.1685185185185185],[1],[0],[0],[1.3630282999947667],['Target'],10,329676,001,2024-10-06_23h31.34.609,Visual Search Task_tutorial,2024.1.5,None,2024-10-06 23h31.44.681191 +0530,
149,0,149,0,251.20122449999326,,251.1574918999977,5,251.20122449999326,251.20122449999326,0.02783030000864528,253.39429699999164,[0.03796296296296296],[-0.45092592592592595],[1],[0],[0],[2.209615700005088],['Target'],,329676,001,2024-10-06_23h31.34.609,Visual Search Task_tutorial,2024.1.5,None,2024-10-06 23h31.44.681191 +0530,
150,0,150,0,253.43184249999467,,253.3991970999923,5,253.43184249999467,253.43184249999467,0.02042240000446327,255.07496729999548,[-0.04814814814814815],[-0.11018518518518519],[1],[0],[0],[1.656048099976033],['Target'],,329676,001,2024-10-06_23h31.34.609,Visual Search Task_tutorial,2024.1.5,None,2024-10-06 23h31.44.681191 +0530,
151,0,151,0,255.1400055999984,,255.07975899998564,,255.1400055999984,255.1400055999984,0.04220480000367388,256.9914966999786,[0.23703703703703705],[0.30185185185185187],[1],[0],[0],[1.869804199988721],['Target'],10,329676,001,2024-10-06_23h31.34.609,Visual Search Task_tutorial,2024.1.5,None,2024-10-06 23h31.44.681191 +0530,
152,0,152,0,257.0311703000043,,256.9963943999901,5,257.0311703000043,257.0311703000043,0.021013199992012233,258.5065614999912,[0.0824074074074074],[0.06481481481481481],[1],[0],[0],[1.4894942000100855],['Target'],,329676,001,2024-10-06_23h31.34.609,Visual Search Task_tutorial,2024.1.5,None,2024-10-06 23h31.44.681191 +0530,
153,0,153,0,258.57175679999636,,258.51133979999577,,258.57175679999636,258.57175679999636,0.04190910002216697,260.08805920000304,[-0.4101851851851852],[-0.37962962962962965],[1],[0],[0],[1.5350312999798916],['Target'],10,329676,001,2024-10-06_23h31.34.609,Visual Search Task_tutorial,2024.1.5,None,2024-10-06 23h31.44.681191 +0530,
154,0,154,0,260.1245487999986,,260.09270429998287,5,260.1245487999986,260.1245487999986,0.01869960001204163,261.8693276999984,[-0.13055555555555556],[0.38055555555555554],[1],[0],[0],[1.758351099997526],['Target'],,329676,001,2024-10-06_23h31.34.609,Visual Search Task_tutorial,2024.1.5,None,2024-10-06 23h31.44.681191 +0530,
155,0,155,0,261.92941909999354,,261.87405729998136,,261.92941909999354,261.92941909999354,0.03852430000551976,263.68815959998756,[0.4],[0.24722222222222223],[1],[0],[0],[1.7760770000168122],['Target'],10,329676,001,2024-10-06_23h31.34.609,Visual Search Task_tutorial,2024.1.5,None,2024-10-06 23h31.44.681191 +0530,
156,0,156,0,263.72603969997726,,263.69280190000427,5,263.72603969997726,263.72603969997726,0.01993339997716248,265.7153362999961,[-0.36944444444444446],[0.08981481481481482],[1],[0],[0],[2.0030114999972284],['Target'],,329676,001,2024-10-06_23h31.34.609,Visual Search Task_tutorial,2024.1.5,None,2024-10-06 23h31.44.681191 +0530,
157,0,157,0,265.7536203999771,,265.71994729997823,5,265.7536203999771,265.7536203999771,0.02098540001315996,267.5133659999992,[-0.5009259259259259],[-0.3787037037037037],[1],[0],[0],[1.772832099988591],['Target'],,329676,001,2024-10-06_23h31.34.609,Visual Search Task_tutorial,2024.1.5,None,2024-10-06 23h31.44.681191 +0530,
158,0,158,0,267.5749803999788,,267.51836580000236,,267.5749803999788,267.5749803999788,0.03945959999691695,270.1174836999853,[-0.39444444444444443],[0.07962962962962963],[1],[0],[0],[2.559925200010184],['Target'],10,329676,001,2024-10-06_23h31.34.609,Visual Search Task_tutorial,2024.1.5,None,2024-10-06 23h31.44.681191 +0530,
159,0,159,0,270.1543281999766,,270.1221794000012,5,270.1543281999766,270.1543281999766,0.019917999976314604,273.05858149999403,[-0.32037037037037036],[-0.30462962962962964],[1],[0],[0],[2.9170003999897745],['Target'],,329676,001,2024-10-06_23h31.34.609,Visual Search Task_tutorial,2024.1.5,None,2024-10-06 23h31.44.681191 +0530,
160,0,160,0,273.1204130999977,,273.0632605999999,,273.1204130999977,273.1204130999977,0.03909370000474155,275.50484219999635,[-0.11944444444444445],[-0.45],[1],[0],[0],[2.4028677999740466],['Target'],10,329676,001,2024-10-06_23h31.34.609,Visual Search Task_tutorial,2024.1.5,None,2024-10-06 23h31.44.681191 +0530,
161,0,161,0,275.5409571999917,,275.5093500999792,5,275.5409571999917,275.5409571999917,0.019224399991799146,276.67374959998415,[-0.2638888888888889],[-0.2175925925925926],[1],[0],[0],[1.1455297000065912],['Target'],,329676,001,2024-10-06_23h31.34.609,Visual Search Task_tutorial,2024.1.5,None,2024-10-06 23h31.44.681191 +0530,
162,0,162,0,276.73654329997953,,276.6788434999762,,276.73654329997953,276.73654329997953,0.04079030000139028,278.7566064999846,[0.14722222222222223],[0.49722222222222223],[1],[0],[0],[2.0373474000080023],['Target'],10,329676,001,2024-10-06_23h31.34.609,Visual Search Task_tutorial,2024.1.5,None,2024-10-06 23h31.44.681191 +0530,
163,0,163,0,278.79341519999434,,278.76182649997645,5,278.79341519999434,278.79341519999434,0.02016739998362027,280.43589579997933,[0.3472222222222222],[0.08611111111111111],[1],[0],[0],[1.6545590000168886],['Target'],,329676,001,2024-10-06_23h31.34.609,Visual Search Task_tutorial,2024.1.5,None,2024-10-06 23h31.44.681191 +0530,
164,0,164,0,280.47238989998004,,280.4409647999855,5,280.47238989998004,280.47238989998004,0.019724899990251288,281.88627049999195,[-0.337037037037037],[0.2212962962962963],[1],[0],[0],[1.4257665999757592],['Target'],,329676,001,2024-10-06_23h31.34.609,Visual Search Task_tutorial,2024.1.5,None,2024-10-06 23h31.44.681191 +0530,
165,0,165,0,281.9654113999859,,281.89207010000246,,281.9654113999859,281.9654113999859,0.05368450001697056,283.35673169998336,[-0.3574074074074074],[0.20462962962962963],[1],[0],[0],[1.411528199998429],['Target'],10,329676,001,2024-10-06_23h31.34.609,Visual Search Task_tutorial,2024.1.5,None,2024-10-06 23h31.44.681191 +0530,
166,0,166,0,283.4183461999928,,283.3616458000033,,283.4183461999928,283.4183461999928,0.038617299986071885,284.9172670999833,[0.002777777777777778],[0.4083333333333333],[1],[0],[0],[1.51726389999385],['Target'],10,329676,001,2024-10-06_23h31.34.609,Visual Search Task_tutorial,2024.1.5,None,2024-10-06 23h31.44.681191 +0530,
167,0,167,0,284.9762939999928,,284.92208779999055,,284.9762939999928,284.9762939999928,0.03760919999331236,286.4756954999757,[0.3453703703703704],[0.3509259259259259],[1],[0],[0],[1.5162322999967728],['Target'],10,329676,001,2024-10-06_23h31.34.609,Visual Search Task_tutorial,2024.1.5,None,2024-10-06 23h31.44.681191 +0530,
168,0,168,0,286.53612579999026,,286.480679899978,,286.53612579999026,286.53612579999026,0.03851600000052713,288.1133021999849,[0.4361111111111111],[0.21851851851851853],[1],[0],[0],[1.5943088000058196],['Target'],10,329676,001,2024-10-06_23h31.34.609,Visual Search Task_tutorial,2024.1.5,None,2024-10-06 23h31.44.681191 +0530,
169,0,169,0,288.16922449998674,,288.117977899994,,288.16922449998674,288.16922449998674,0.035295500012580305,290.2076560999849,[0.3388888888888889],[-0.19537037037037036],[1],[0],[0],[2.054767699999502],['Target'],10,329676,001,2024-10-06_23h31.34.609,Visual Search Task_tutorial,2024.1.5,None,2024-10-06 23h31.44.681191 +0530,
170,0,170,0,290.26469499999075,,290.21217559999786,,290.26469499999075,290.26469499999075,0.036187299992889166,291.72973130000173,[-0.412962962962963],[-0.005555555555555556],[1],[0],[0],[1.4815036999934819],['Target'],10,329676,001,2024-10-06_23h31.34.609,Visual Search Task_tutorial,2024.1.5,None,2024-10-06 23h31.44.681191 +0530,
171,0,171,0,291.78738629998406,,291.7342955999775,,291.78738629998406,291.78738629998406,0.03689229997689836,293.1013929999899,[-0.41388888888888886],[-0.1361111111111111],[1],[0],[0],[1.330587899981765],['Target'],10,329676,001,2024-10-06_23h31.34.609,Visual Search Task_tutorial,2024.1.5,None,2024-10-06 23h31.44.681191 +0530,
172,0,172,0,293.161282999994,,293.10642929997994,,293.161282999994,293.161282999994,0.037654199986718595,294.67859609998413,[-0.4222222222222222],[0.3101851851851852],[1],[0],[0],[1.5348482000117656],['Target'],10,329676,001,2024-10-06_23h31.34.609,Visual Search Task_tutorial,2024.1.5,None,2024-10-06 23h31.44.681191 +0530,
173,0,173,0,294.71654090000084,,294.6846946000005,5,294.71654090000084,294.71654090000084,0.019627300003776327,296.4373553000041,[0.14722222222222223],[0.30925925925925923],[1],[0],[0],[1.733419700001832],['Target'],,329676,001,2024-10-06_23h31.34.609,Visual Search Task_tutorial,2024.1.5,None,2024-10-06 23h31.44.681191 +0530,
174,0,174,0,296.4745905000018,,296.4422663000005,5,296.4745905000018,296.4745905000018,0.019649800000479445,298.40389799998957,[-0.12962962962962962],[-0.412962962962963],[1],[0],[0],[1.942385500005912],['Target'],,329676,001,2024-10-06_23h31.34.609,Visual Search Task_tutorial,2024.1.5,None,2024-10-06 23h31.44.681191 +0530,
175,0,175,0,298.4647890999913,,298.4088628999889,,298.4647890999913,298.4647890999913,0.03927239999757148,299.9433207999973,[0.2490740740740741],[0.10185185185185185],[1],[0],[0],[1.4954955999855883],['Target'],10,329676,001,2024-10-06_23h31.34.609,Visual Search Task_tutorial,2024.1.5,None,2024-10-06 23h31.44.681191 +0530,
176,0,176,0,299.98207119997824,,299.94823239999823,5,299.98207119997824,299.98207119997824,0.021154899994144216,301.53382009998313,[-0.06851851851851852],[0.07314814814814814],[1],[0],[0],[1.5648159999982454],['Target'],,329676,001,2024-10-06_23h31.34.609,Visual Search Task_tutorial,2024.1.5,None,2024-10-06 23h31.44.681191 +0530,
177,0,177,0,301.59122419997584,,301.5383493999834,,301.59122419997584,301.59122419997584,0.03628119998029433,303.275121499988,[0.25833333333333336],[0.32592592592592595],[1],[0],[0],[1.7007917999872006],['Target'],10,329676,001,2024-10-06_23h31.34.609,Visual Search Task_tutorial,2024.1.5,None,2024-10-06 23h31.44.681191 +0530,
178,0,178,0,303.31353630000376,,303.2800108999945,5,303.31353630000376,303.31353630000376,0.021301700006006286,304.74720299997716,[0.07962962962962963],[0.23425925925925925],[1],[0],[0],[1.4463305000099353],['Target'],,329676,001,2024-10-06_23h31.34.609,Visual Search Task_tutorial,2024.1.5,None,2024-10-06 23h31.44.681191 +0530,
179,0,179,0,304.8082394999801,,304.7520299000025,,304.8082394999801,304.8082394999801,0.03754350001690909,306.6104642999999,[0.03518518518518519],[-0.3277777777777778],[1],[0],[0],[1.8211159000056796],['Target'],10,329676,001,2024-10-06_23h31.34.609,Visual Search Task_tutorial,2024.1.5,None,2024-10-06 23h31.44.681191 +0530,
180,0,180,0,306.6733574999962,,306.6155430999934,,306.6733574999962,306.6733574999962,0.040678399993339553,307.86294739998993,[0.20925925925925926],[-0.08981481481481482],[1],[0],[0],[1.2071092999831308],['Target'],10,329676,001,2024-10-06_23h31.34.609,Visual Search Task_tutorial,2024.1.5,None,2024-10-06 23h31.44.681191 +0530,
181,0,181,0,307.9020453999983,,307.8675530999899,5,307.9020453999983,307.9020453999983,0.021281099994666874,309.1600111000007,[-0.225],[0.23796296296296296],[1],[0],[0],[1.2713070999889169],['Target'],,329676,001,2024-10-06_23h31.34.609,Visual Search Task_tutorial,2024.1.5,None,2024-10-06 23h31.44.681191 +0530,
182,0,182,0,309.21911539998837,,309.164887299994,,309.21911539998837,309.21911539998837,0.037579600000754,311.29182189999847,[0.4203703703703704],[-0.2324074074074074],[1],[0],[0],[2.089756099972874],['Target'],10,329676,001,2024-10-06_23h31.34.609,Visual Search Task_tutorial,2024.1.5,None,2024-10-06 23h31.44.681191 +0530,
183,0,183,0,311.33058769998024,,311.2967934999906,5,311.33058769998024,311.33058769998024,0.02134420000948012,312.9892717000039,[-0.27037037037037037],[-0.21944444444444444],[1],[0],[0],[1.67145100000198],['Target'],,329676,001,2024-10-06_23h31.34.609,Visual Search Task_tutorial,2024.1.5,None,2024-10-06 23h31.44.681191 +0530,
184,0,184,0,313.02937509998446,,312.99497879997944,5,313.02937509998446,313.02937509998446,0.020700599998235703,315.1542194999929,[0.41759259259259257],[-0.2],[1],[0],[0],[2.1390179000154603],['Target'],,329676,001,2024-10-06_23h31.34.609,Visual Search Task_tutorial,2024.1.5,None,2024-10-06 23h31.44.681191 +0530,
185,0,185,0,315.2167039999913,,315.1589530999772,,315.2167039999913,315.2167039999913,0.038605299982009456,316.6163251999824,[0.22870370370370371],[0.07407407407407407],[1],[0],[0],[1.4191385000012815],['Target'],10,329676,001,2024-10-06_23h31.34.609,Visual Search Task_tutorial,2024.1.5,None,2024-10-06 23h31.44.681191 +0530,
186,0,186,0,316.67287799998303,,316.6211856000009,,316.67287799998303,316.67287799998303,0.03577749998657964,318.74053489998914,[0.33796296296296297],[0.24074074074074073],[1],[0],[0],[2.0840038000023924],['Target'],10,329676,001,2024-10-06_23h31.34.609,Visual Search Task_tutorial,2024.1.5,None,2024-10-06 23h31.44.681191 +0530,
187,0,187,0,318.8029801999801,,318.7457007999765,,318.8029801999801,318.8029801999801,0.039885500009404495,320.2856128999847,[-0.33055555555555555],[-0.23055555555555557],[1],[0],[0],[1.500341799983289],['Target'],10,329676,001,2024-10-06_23h31.34.609,Visual Search Task_tutorial,2024.1.5,None,2024-10-06 23h31.44.681191 +0530,
188,0,188,0,320.3211461000028,,320.2906730999821,5,320.3211461000028,320.3211461000028,0.019016999984160066,321.9488301999809,[0.29444444444444445],[0.009259259259259259],[1],[0],[0],[1.6396932999778073],['Target'],,329676,001,2024-10-06_23h31.34.609,Visual Search Task_tutorial,2024.1.5,None,2024-10-06 23h31.44.681191 +0530,
189,0,189,0,322.0132125999953,,321.95378489998984,,322.0132125999953,322.0132125999953,0.04213490002439357,323.4357344000018,[0.31851851851851853],[0.13055555555555556],[1],[0],[0],[1.4402593999984674],['Target'],10,329676,001,2024-10-06_23h31.34.609,Visual Search Task_tutorial,2024.1.5,None,2024-10-06 23h31.44.681191 +0530,
190,0,190,0,323.4809471999761,,323.44102529998054,5,323.4809471999761,323.4809471999761,0.026113600004464388,325.2464787999925,[0.3824074074074074],[-0.31296296296296294],[1],[0],[0],[1.779781199991703],['Target'],,329676,001,2024-10-06_23h31.34.609,Visual Search Task_tutorial,2024.1.5,None,2024-10-06 23h31.44.681191 +0530,
191,0,191,0,325.28490830000374,,325.2512095999846,5,325.28490830000374,325.28490830000374,0.021192100015468895,327.4603045999829,[-0.46296296296296297],[-0.012037037037037037],[1],[0],[0],[2.188189100008458],['Target'],,329676,001,2024-10-06_23h31.34.609,Visual Search Task_tutorial,2024.1.5,None,2024-10-06 23h31.44.681191 +0530,
192,0,192,0,327.5196810999769,,327.4652608000033,,327.5196810999769,327.5196810999769,0.03736119999666698,329.06700889999047,[-0.003703703703703704],[0.45740740740740743],[1],[0],[0],[1.5647740999993403],['Target'],10,329676,001,2024-10-06_23h31.34.609,Visual Search Task_tutorial,2024.1.5,None,2024-10-06 23h31.44.681191 +0530,
193,0,193,0,329.1060930999811,,329.07181609998224,5,329.1060930999811,329.1060930999811,0.020785900007467717,331.47360719999415,[0.06388888888888888],[-0.09166666666666666],[1],[0],[0],[2.38133950001793],['Target'],,329676,001,2024-10-06_23h31.34.609,Visual Search Task_tutorial,2024.1.5,None,2024-10-06 23h31.44.681191 +0530,
194,0,194,0,331.53664409997873,,331.4784423999954,,331.53664409997873,331.53664409997873,0.039811499998904765,333.2586081000045,[-0.2657407407407407],[-0.4666666666666667],[1],[0],[0],[1.7406577999936417],['Target'],10,329676,001,2024-10-06_23h31.34.609,Visual Search Task_tutorial,2024.1.5,None,2024-10-06 23h31.44.681191 +0530,
195,0,195,0,333.3243922999827,,333.26371810000273,,333.3243922999827,333.3243922999827,0.04174139999668114,335.01392319999286,[-0.026851851851851852],[0.35185185185185186],[1],[0],[0],[1.7087629000016022],['Target'],10,329676,001,2024-10-06_23h31.34.609,Visual Search Task_tutorial,2024.1.5,None,2024-10-06 23h31.44.681191 +0530,
196,0,196,0,335.07463279998046,,335.0185697999841,,335.07463279998046,335.07463279998046,0.03928749999613501,336.72572249997756,[0.43425925925925923],[-0.23148148148148148],[1],[0],[0],[1.6680830999976024],['Target'],10,329676,001,2024-10-06_23h31.34.609,Visual Search Task_tutorial,2024.1.5,None,2024-10-06 23h31.44.681191 +0530,
197,0,197,0,336.76464199999464,,336.7305941999948,5,336.76464199999464,336.76464199999464,0.020544800005154684,338.1683288999775,[-0.1398148148148148],[0.04259259259259259],[1],[0],[0],[1.4175007000158075],['Target'],,329676,001,2024-10-06_23h31.34.609,Visual Search Task_tutorial,2024.1.5,None,2024-10-06 23h31.44.681191 +0530,
198,0,198,0,338.227404699981,,338.1731039999868,,338.227404699981,338.227404699981,0.03728200000477955,339.72243029999663,[0.14537037037037037],[0.1814814814814815],[1],[0],[0],[1.5123777999833692],['Target'],10,329676,001,2024-10-06_23h31.34.609,Visual Search Task_tutorial,2024.1.5,None,2024-10-06 23h31.44.681191 +0530,
199,0,199,0,339.7827898999967,,339.7273898999847,,339.7827898999967,339.7827898999967,0.038041499996325,341.0851305999968,[0.004629629629629629],[0.09259259259259259],[1],[0],[0],[1.3201455000089481],['Target'],10,329676,001,2024-10-06_23h31.34.609,Visual Search Task_tutorial,2024.1.5,None,2024-10-06 23h31.44.681191 +0530,
