trials.thisRepN,trials.thisTrialN,trials.thisN,trials.thisIndex,thisRow.t,notes,trial.started,num_distr,Fixation.started,Target.started,mouse.started,trial.stopped,mouse.x,mouse.y,mouse.leftButton,mouse.midButton,mouse.rightButton,mouse.time,mouse.clicked_name,num_distr&,participant,session,date,expName,psychopyVersion,frameRate,expStart,
0,0,0,0,0.06387090000498574,,0.011369300002115779,5,0.06387090000498574,0.06387090000498574,0.04645979999622796,3.054401899993536,[0.11203703703703703],[-0.3175925925925926],[1],[0],[0],[3.0067798999953084],['Target'],,444993,001,2024-10-08_21h16.56.677,Visual Search Task_tutorial,2024.1.5,None,2024-10-08 21h17.05.108594 +0530,
1,0,1,0,3.1209801999939373,,3.0613919000024907,,3.1209801999939373,3.1209801999939373,0.04151629999978468,5.5341508999990765,[-0.43796296296296294],[-0.4009259259259259],[1],[0],[0],[2.431592199995066],['Target'],10,444993,001,2024-10-08_21h16.56.677,Visual Search Task_tutorial,2024.1.5,None,2024-10-08 21h17.05.108594 +0530,
2,0,2,0,5.593297300001723,,5.5388321000064025,,5.593297300001723,5.593297300001723,0.03808670000580605,6.970567900003516,[-0.016666666666666666],[0.12314814814814815],[1],[0],[0],[1.3940689000010025],['Target'],10,444993,001,2024-10-08_21h16.56.677,Visual Search Task_tutorial,2024.1.5,None,2024-10-08 21h17.05.108594 +0530,
3,0,3,0,7.008613800004241,,6.975376699992921,5,7.008613800004241,7.008613800004241,0.021081700004287995,8.664744199995766,[-0.32407407407407407],[0.33611111111111114],[1],[0],[0],[1.668723399998271],['Target'],,444993,001,2024-10-08_21h16.56.677,Visual Search Task_tutorial,2024.1.5,None,2024-10-08 21h17.05.108594 +0530,
4,0,4,0,8.702651900006458,,8.66964399999415,5,8.702651900006458,8.702651900006458,0.020743200002470985,10.080124000000069,[-0.15925925925925927],[0.17685185185185184],[1],[0],[0],[1.3900872000085656],['Target'],,444993,001,2024-10-08_21h16.56.677,Visual Search Task_tutorial,2024.1.5,None,2024-10-08 21h17.05.108594 +0530,
5,0,5,0,10.142060900005163,,10.084964699999546,,10.142060900005163,10.142060900005163,0.04048839998722542,11.560799099999713,[-0.44351851851851853],[0.30462962962962964],[1],[0],[0],[1.4357631000020774],['Target'],10,444993,001,2024-10-08_21h16.56.677,Visual Search Task_tutorial,2024.1.5,None,2024-10-08 21h17.05.108594 +0530,
6,0,6,0,11.598838999998407,,11.56540120000136,5,11.598838999998407,11.598838999998407,0.019420999989961274,13.145210400005453,[-0.18981481481481483],[0.37777777777777777],[1],[0],[0],[1.560784600005718],['Target'],,444993,001,2024-10-08_21h16.56.677,Visual Search Task_tutorial,2024.1.5,None,2024-10-08 21h17.05.108594 +0530,
7,0,7,0,13.20636719999311,,13.150204999998095,,13.20636719999311,13.20636719999311,0.038213500010897405,14.391688500007149,[-0.31851851851851853],[0.4111111111111111],[1],[0],[0],[1.2036110000044573],['Target'],10,444993,001,2024-10-08_21h16.56.677,Visual Search Task_tutorial,2024.1.5,None,2024-10-08 21h17.05.108594 +0530,
8,0,8,0,14.429742599997553,,14.397030000007362,5,14.429742599997553,14.429742599997553,0.020821099999011494,15.375822999994853,[-0.2796296296296296],[0.37592592592592594],[1],[0],[0],[0.9584064000082435],['Target'],,444993,001,2024-10-08_21h16.56.677,Visual Search Task_tutorial,2024.1.5,None,2024-10-08 21h17.05.108594 +0530,
9,0,9,0,15.43731399999524,,15.38046509999549,,15.43731399999524,15.43731399999524,0.0401179000036791,16.909350300004007,[-0.30925925925925923],[0.2],[1],[0],[0],[1.4891168999893125],['Target'],10,444993,001,2024-10-08_21h16.56.677,Visual Search Task_tutorial,2024.1.5,None,2024-10-08 21h17.05.108594 +0530,
10,0,10,0,16.97091960000398,,16.914229799993336,,16.97091960000398,16.97091960000398,0.039883999997982755,19.3149415999942,[-0.21388888888888888],[-0.46944444444444444],[1],[0],[0],[2.361349300001166],['Target'],10,444993,001,2024-10-08_21h16.56.677,Visual Search Task_tutorial,2024.1.5,None,2024-10-08 21h17.05.108594 +0530,
11,0,11,0,19.352987200007192,,19.31983059999766,5,19.352987200007192,19.352987200007192,0.01997700000356417,20.95401820000552,[-0.4759259259259259],[-0.10185185185185185],[1],[0],[0],[1.614560000001802],['Target'],,444993,001,2024-10-08_21h16.56.677,Visual Search Task_tutorial,2024.1.5,None,2024-10-08 21h17.05.108594 +0530,
12,0,12,0,21.01878699999361,,20.958657199997106,,21.01878699999361,21.01878699999361,0.04360259999521077,23.20931120000023,[0.412962962962963],[0.13703703703703704],[1],[0],[0],[2.2073762999934843],[],10,444993,001,2024-10-08_21h16.56.677,Visual Search Task_tutorial,2024.1.5,None,2024-10-08 21h17.05.108594 +0530,
13,0,13,0,23.247626700002,,23.214234300001408,5,23.247626700002,23.247626700002,0.02116859999659937,24.700860199998715,[-0.2601851851851852],[0.42777777777777776],[1],[0],[0],[1.4659829000011086],['Target'],,444993,001,2024-10-08_21h16.56.677,Visual Search Task_tutorial,2024.1.5,None,2024-10-08 21h17.05.108594 +0530,
14,0,14,0,24.73847900000692,,24.70577179999964,5,24.73847900000692,24.73847900000692,0.02032300000428222,26.099605099996552,[0.31851851851851853],[0.34444444444444444],[1],[0],[0],[1.3739004999952158],['Target'],,444993,001,2024-10-08_21h16.56.677,Visual Search Task_tutorial,2024.1.5,None,2024-10-08 21h17.05.108594 +0530,
15,0,15,0,26.13756430000649,,26.10414779999701,5,26.13756430000649,26.13756430000649,0.020255199997336604,27.38121740000497,[0.43425925925925923],[0.041666666666666664],[1],[0],[0],[1.257193700002972],[],,444993,001,2024-10-08_21h16.56.677,Visual Search Task_tutorial,2024.1.5,None,2024-10-08 21h17.05.108594 +0530,
16,0,16,0,27.419868299999507,,27.385746600004495,5,27.419868299999507,27.419868299999507,0.019836699997540563,28.563369199997396,[0.024074074074074074],[0.30185185185185187],[1],[0],[0],[1.158189299996593],['Target'],,444993,001,2024-10-08_21h16.56.677,Visual Search Task_tutorial,2024.1.5,None,2024-10-08 21h17.05.108594 +0530,
17,0,17,0,28.62290020000364,,28.567897400003858,,28.62290020000364,28.62290020000364,0.038488299993332475,30.851601500005927,[-0.5],[0.40185185185185185],[1],[0],[0],[2.2454924999910872],['Target'],10,444993,001,2024-10-08_21h16.56.677,Visual Search Task_tutorial,2024.1.5,None,2024-10-08 21h17.05.108594 +0530,
18,0,18,0,30.91179060000286,,30.8564042999933,,30.91179060000286,30.91179060000286,0.03816250000090804,34.120848999999,[0.07222222222222222],[0.4777777777777778],[1],[0],[0],[3.2266069000033895],['Target'],10,444993,001,2024-10-08_21h16.56.677,Visual Search Task_tutorial,2024.1.5,None,2024-10-08 21h17.05.108594 +0530,
19,0,19,0,34.180294200006756,,34.12583109999832,,34.180294200006756,34.180294200006756,0.037886099991737865,35.570346199994674,[-0.18425925925925926],[0.15185185185185185],[1],[0],[0],[1.4070378999895183],['Target'],10,444993,001,2024-10-08_21h16.56.677,Visual Search Task_tutorial,2024.1.5,None,2024-10-08 21h17.05.108594 +0530,
20,0,20,0,35.6085030999966,,35.57510970000294,5,35.6085030999966,35.6085030999966,0.020934000000124797,36.93987499999639,[-0.04537037037037037],[0.03148148148148148],[1],[0],[0],[1.344216499986942],['Target'],,444993,001,2024-10-08_21h16.56.677,Visual Search Task_tutorial,2024.1.5,None,2024-10-08 21h17.05.108594 +0530,
21,0,21,0,37.00457550000283,,36.94477640000696,,37.00457550000283,37.00457550000283,0.04071119999571238,39.047489100004896,[-0.36574074074074076],[-0.4675925925925926],[1],[0],[0],[2.0623723000026075],['Target'],10,444993,001,2024-10-08_21h16.56.677,Visual Search Task_tutorial,2024.1.5,None,2024-10-08 21h17.05.108594 +0530,
22,0,22,0,39.10885010000493,,39.052091399993515,,39.10885010000493,39.10885010000493,0.0388097000104608,41.712185399999726,[0.012037037037037037],[-0.3814814814814815],[1],[0],[0],[2.621566100002383],['Target'],10,444993,001,2024-10-08_21h16.56.677,Visual Search Task_tutorial,2024.1.5,None,2024-10-08 21h17.05.108594 +0530,
23,0,23,0,41.77193719999923,,41.71683540000231,,41.77193719999923,41.77193719999923,0.03846229999908246,43.127513100000215,[-0.11388888888888889],[0.20277777777777778],[1],[0],[0],[1.372555399997509],['Target'],10,444993,001,2024-10-08_21h16.56.677,Visual Search Task_tutorial,2024.1.5,None,2024-10-08 21h17.05.108594 +0530,
24,0,24,0,43.19085879999329,,43.1331402999931,,43.19085879999329,43.19085879999329,0.04020379998837598,45.09842769999523,[-0.15833333333333333],[-0.023148148148148147],[1],[0],[0],[1.9255336999922292],['Target'],10,444993,001,2024-10-08_21h16.56.677,Visual Search Task_tutorial,2024.1.5,None,2024-10-08 21h17.05.108594 +0530,
25,0,25,0,45.162264600003255,,45.10330279999471,,45.162264600003255,45.162264600003255,0.040819500005454756,47.16305669999565,[-0.46111111111111114],[-0.2518518518518518],[1],[0],[0],[2.0194366999930935],['Target'],10,444993,001,2024-10-08_21h16.56.677,Visual Search Task_tutorial,2024.1.5,None,2024-10-08 21h17.05.108594 +0530,
26,0,26,0,47.211703599998145,,47.16668730000674,,47.211703599998145,47.211703599998145,0.030385199992451817,48.947507699995185,[0.3851851851851852],[0.39166666666666666],[1],[0],[0],[1.7506585999944946],[],10,444993,001,2024-10-08_21h16.56.677,Visual Search Task_tutorial,2024.1.5,None,2024-10-08 21h17.05.108594 +0530,
27,0,27,0,49.00805560000299,,48.95219029999862,,49.00805560000299,49.00805560000299,0.03903020000143442,50.849460700002965,[0.3537037037037037],[0.14351851851851852],[1],[0],[0],[1.8585276999947382],['Target'],10,444993,001,2024-10-08_21h16.56.677,Visual Search Task_tutorial,2024.1.5,None,2024-10-08 21h17.05.108594 +0530,
28,0,28,0,50.992630399996415,,50.854073499998776,,50.992630399996415,50.992630399996415,0.1229033999989042,52.558232499999576,[-0.3277777777777778],[-0.11574074074074074],[1],[0],[0],[1.5814503000001423],['Target'],10,444993,001,2024-10-08_21h16.56.677,Visual Search Task_tutorial,2024.1.5,None,2024-10-08 21h17.05.108594 +0530,
29,0,29,0,52.613334199995734,,52.56255269999383,,52.613334199995734,52.613334199995734,0.03495959998690523,54.05463769999915,[-0.012962962962962963],[-0.08333333333333333],[1],[0],[0],[1.457412599993404],['Target'],10,444993,001,2024-10-08_21h16.56.677,Visual Search Task_tutorial,2024.1.5,None,2024-10-08 21h17.05.108594 +0530,
30,0,30,0,54.09182370000053,,54.05947520000336,5,54.09182370000053,54.09182370000053,0.020240099998773076,55.47254230000544,[-0.42407407407407405],[0.23055555555555557],[1],[0],[0],[1.393258900003275],['Target'],,444993,001,2024-10-08_21h16.56.677,Visual Search Task_tutorial,2024.1.5,None,2024-10-08 21h17.05.108594 +0530,
31,0,31,0,55.5334620999929,,55.47752020000189,,55.5334620999929,55.5334620999929,0.03881480000563897,57.906981899999664,[-0.39166666666666666],[-0.45925925925925926],[1],[0],[0],[2.3912008999905083],['Target'],10,444993,001,2024-10-08_21h16.56.677,Visual Search Task_tutorial,2024.1.5,None,2024-10-08 21h17.05.108594 +0530,
32,0,32,0,57.94465950000449,,57.912357299996074,5,57.94465950000449,57.94465950000449,0.020486699999310076,59.20175760000711,[0.11851851851851852],[-0.15092592592592594],[1],[0],[0],[1.2692627999931574],['Target'],,444993,001,2024-10-08_21h16.56.677,Visual Search Task_tutorial,2024.1.5,None,2024-10-08 21h17.05.108594 +0530,
33,0,33,0,59.26531010000326,,59.206645400001435,,59.26531010000326,59.26531010000326,0.03985260000627022,60.89476340000692,[-0.5018518518518519],[-0.1527777777777778],[1],[0],[0],[1.648571699988679],['Target'],10,444993,001,2024-10-08_21h16.56.677,Visual Search Task_tutorial,2024.1.5,None,2024-10-08 21h17.05.108594 +0530,
34,0,34,0,60.95406509999884,,60.899498600003426,,60.95406509999884,60.95406509999884,0.0380927999940468,62.47263699999894,[-0.3888888888888889],[0.2814814814814815],[1],[0],[0],[1.5355131000105757],['Target'],10,444993,001,2024-10-08_21h16.56.677,Visual Search Task_tutorial,2024.1.5,None,2024-10-08 21h17.05.108594 +0530,
35,0,35,0,62.511951199994655,,62.47758839999733,5,62.511951199994655,62.511951199994655,0.021109599998453632,63.81581600000209,[0.04722222222222222],[0.08055555555555556],[1],[0],[0],[1.317534899993916],['Target'],,444993,001,2024-10-08_21h16.56.677,Visual Search Task_tutorial,2024.1.5,None,2024-10-08 21h17.05.108594 +0530,
36,0,36,0,63.875304999994114,,63.82108530000551,,63.875304999994114,63.875304999994114,0.037790600006701425,65.55958040000405,[-0.25925925925925924],[-0.275],[1],[0],[0],[1.7011290999944322],['Target'],10,444993,001,2024-10-08_21h16.56.677,Visual Search Task_tutorial,2024.1.5,None,2024-10-08 21h17.05.108594 +0530,
37,0,37,0,65.61732889999985,,65.5642896000063,,65.61732889999985,65.61732889999985,0.03686560000642203,67.30604949999542,[-0.45],[-0.17962962962962964],[1],[0],[0],[1.7052660000044852],['Target'],10,444993,001,2024-10-08_21h16.56.677,Visual Search Task_tutorial,2024.1.5,None,2024-10-08 21h17.05.108594 +0530,
38,0,38,0,67.37160339999537,,67.3109192999982,,67.37160339999537,67.37160339999537,0.04005460000189487,68.3652260999952,[-0.2222222222222222],[-0.041666666666666664],[1],[0],[0],[1.0147160000051372],['Target'],10,444993,001,2024-10-08_21h16.56.677,Visual Search Task_tutorial,2024.1.5,None,2024-10-08 21h17.05.108594 +0530,
39,0,39,0,68.4281587000005,,68.36996450000152,,68.4281587000005,68.4281587000005,0.040428399996017106,70.82461549999425,[0.40185185185185185],[0.2675925925925926],[1],[0],[0],[2.4145556000003126],[],10,444993,001,2024-10-08_21h16.56.677,Visual Search Task_tutorial,2024.1.5,None,2024-10-08 21h17.05.108594 +0530,
40,0,40,0,70.88549250000506,,70.82960389999789,,70.88549250000506,70.88549250000506,0.03804830000444781,72.49436399999831,[-0.28425925925925927],[-0.19444444444444445],[1],[0],[0],[1.6271383999992395],['Target'],10,444993,001,2024-10-08_21h16.56.677,Visual Search Task_tutorial,2024.1.5,None,2024-10-08 21h17.05.108594 +0530,
41,0,41,0,72.55378450000717,,72.49907469999744,,72.55378450000717,72.55378450000717,0.03849830001126975,75.13853389999713,[0.26851851851851855],[-0.4583333333333333],[1],[0],[0],[2.6013000999955693],['Target'],10,444993,001,2024-10-08_21h16.56.677,Visual Search Task_tutorial,2024.1.5,None,2024-10-08 21h17.05.108594 +0530,
42,0,42,0,75.18652869999642,,75.14230190000671,,75.18652869999642,75.18652869999642,0.03001070000755135,76.67692549999629,[-0.38425925925925924],[-0.42685185185185187],[1],[0],[0],[1.5048807000130182],['Target'],10,444993,001,2024-10-08_21h16.56.677,Visual Search Task_tutorial,2024.1.5,None,2024-10-08 21h17.05.108594 +0530,
43,0,43,0,76.73784380000143,,76.68170840000676,,76.73784380000143,76.73784380000143,0.03895550000015646,78.45955949999916,[0.3490740740740741],[-0.13148148148148148],[1],[0],[0],[1.7392513000086183],['Target'],10,444993,001,2024-10-08_21h16.56.677,Visual Search Task_tutorial,2024.1.5,None,2024-10-08 21h17.05.108594 +0530,
44,0,44,0,78.49763030000031,,78.4646514000051,5,78.49763030000031,78.49763030000031,0.021102800004882738,80.11584149999544,[0.37592592592592594],[0.3148148148148148],[1],[0],[0],[1.630458900006488],['Target'],,444993,001,2024-10-08_21h16.56.677,Visual Search Task_tutorial,2024.1.5,None,2024-10-08 21h17.05.108594 +0530,
45,0,45,0,80.15415499999654,,80.1206067000021,5,80.15415499999654,80.15415499999654,0.020709500007797033,81.98173990000214,[0.049074074074074076],[-0.3453703703703704],[1],[0],[0],[1.8406511999928625],['Target'],,444993,001,2024-10-08_21h16.56.677,Visual Search Task_tutorial,2024.1.5,None,2024-10-08 21h17.05.108594 +0530,
46,0,46,0,82.01663250000274,,81.9863922999939,5,82.01663250000274,82.01663250000274,0.018463600004906766,83.26923780000652,[0.19166666666666668],[0.05],[1],[0],[0],[1.264699399995152],['Target'],,444993,001,2024-10-08_21h16.56.677,Visual Search Task_tutorial,2024.1.5,None,2024-10-08 21h17.05.108594 +0530,
47,0,47,0,83.31238780000422,,83.2759772999998,5,83.31238780000422,83.31238780000422,0.023350399991613813,84.74785339999653,[0.1425925925925926],[-0.35185185185185186],[1],[0],[0],[1.4492571000009775],['Target'],,444993,001,2024-10-08_21h16.56.677,Visual Search Task_tutorial,2024.1.5,None,2024-10-08 21h17.05.108594 +0530,
48,0,48,0,84.794710999995,,84.75464579999971,5,84.794710999995,84.794710999995,0.028616499999770895,86.69488140000612,[0.36574074074074076],[-0.2935185185185185],[1],[0],[0],[1.9119224000023678],[],,444993,001,2024-10-08_21h16.56.677,Visual Search Task_tutorial,2024.1.5,None,2024-10-08 21h17.05.108594 +0530,
49,0,49,0,86.76492879999569,,86.70057580000139,,86.76492879999569,86.76492879999569,0.04433679999783635,88.17915510000603,[-0.23981481481481481],[-0.21944444444444444],[1],[0],[0],[1.4349644000030821],['Target'],10,444993,001,2024-10-08_21h16.56.677,Visual Search Task_tutorial,2024.1.5,None,2024-10-08 21h17.05.108594 +0530,
50,0,50,0,88.21850820000691,,88.18397450000339,5,88.21850820000691,88.21850820000691,0.020491100003710017,90.2907872999931,[0.4287037037037037],[-0.13240740740740742],[1],[0],[0],[2.0867184000089765],['Target'],,444993,001,2024-10-08_21h16.56.677,Visual Search Task_tutorial,2024.1.5,None,2024-10-08 21h17.05.108594 +0530,
51,0,51,0,90.32811950000178,,90.29533880000236,5,90.32811950000178,90.32811950000178,0.019752199994400144,91.93928310000047,[-0.12037037037037036],[0.3351851851851852],[1],[0],[0],[1.6246068999898853],['Target'],,444993,001,2024-10-08_21h16.56.677,Visual Search Task_tutorial,2024.1.5,None,2024-10-08 21h17.05.108594 +0530,
52,0,52,0,91.97657959999924,,91.94424139999319,5,91.97657959999924,91.97657959999924,0.019899800012353808,93.70353349999641,[0.45740740740740743],[0.38981481481481484],[1],[0],[0],[1.73979180000606],['Target'],,444993,001,2024-10-08_21h16.56.677,Visual Search Task_tutorial,2024.1.5,None,2024-10-08 21h17.05.108594 +0530,
53,0,53,0,93.7422738000023,,93.70835549999902,5,93.7422738000023,93.7422738000023,0.02176350000081584,95.36959849999403,[-0.4722222222222222],[-0.09166666666666666],[1],[0],[0],[1.6397980000037933],['Target'],,444993,001,2024-10-08_21h16.56.677,Visual Search Task_tutorial,2024.1.5,None,2024-10-08 21h17.05.108594 +0530,
54,0,54,0,95.40818470000522,,95.37442670000019,5,95.40818470000522,95.40818470000522,0.021113499999046326,96.26870889999554,[0.20092592592592592],[-0.20277777777777778],[1],[0],[0],[0.8736876000039047],[],,444993,001,2024-10-08_21h16.56.677,Visual Search Task_tutorial,2024.1.5,None,2024-10-08 21h17.05.108594 +0530,
55,0,55,0,96.33005309999862,,96.27342090000457,,96.33005309999862,96.33005309999862,0.040009100004681386,98.26355449999392,[-0.337037037037037],[0.2675925925925926],[1],[0],[0],[1.9505416000029072],['Target'],10,444993,001,2024-10-08_21h16.56.677,Visual Search Task_tutorial,2024.1.5,None,2024-10-08 21h17.05.108594 +0530,
56,0,56,0,98.32606910000322,,98.26825059999828,,98.32606910000322,98.32606910000322,0.03889960001106374,100.58362510000006,[0.2212962962962963],[-0.48703703703703705],[1],[0],[0],[2.276873599999817],[],10,444993,001,2024-10-08_21h16.56.677,Visual Search Task_tutorial,2024.1.5,None,2024-10-08 21h17.05.108594 +0530,
57,0,57,0,100.62186970000039,,100.58855600000243,5,100.62186970000039,100.62186970000039,0.021998200012603775,103.32870660000481,[0.4935185185185185],[0.2898148148148148],[1],[0],[0],[2.7185788999922806],['Target'],,444993,001,2024-10-08_21h16.56.677,Visual Search Task_tutorial,2024.1.5,None,2024-10-08 21h17.05.108594 +0530,
58,0,58,0,103.3911339000042,,103.3335311999981,,103.3911339000042,103.3911339000042,0.04117630000109784,104.84070749999955,[-0.01574074074074074],[0.11481481481481481],[1],[0],[0],[1.466320599996834],['Target'],10,444993,001,2024-10-08_21h16.56.677,Visual Search Task_tutorial,2024.1.5,None,2024-10-08 21h17.05.108594 +0530,
59,0,59,0,104.8818872999982,,104.84570809999423,5,104.8818872999982,104.8818872999982,0.022145199996884912,106.16063209999993,[-0.26851851851851855],[0.06759259259259259],[1],[0],[0],[1.2930039999919245],['Target'],,444993,001,2024-10-08_21h16.56.677,Visual Search Task_tutorial,2024.1.5,None,2024-10-08 21h17.05.108594 +0530,
60,0,60,0,106.23804080000264,,106.16617559999577,,106.23804080000264,106.23804080000264,0.05323150000185706,108.2375333999953,[0.3972222222222222],[-0.30277777777777776],[1],[0],[0],[2.018671000012546],[],10,444993,001,2024-10-08_21h16.56.677,Visual Search Task_tutorial,2024.1.5,None,2024-10-08 21h17.05.108594 +0530,
61,0,61,0,108.27506939999876,,108.24228079999739,5,108.27506939999876,108.27506939999876,0.02036769999540411,109.9226556999929,[-0.4101851851851852],[-0.08425925925925926],[1],[0],[0],[1.6603826000064146],['Target'],,444993,001,2024-10-08_21h16.56.677,Visual Search Task_tutorial,2024.1.5,None,2024-10-08 21h17.05.108594 +0530,
62,0,62,0,109.96085449999373,,109.92758360000153,5,109.96085449999373,109.96085449999373,0.02080460000433959,111.5209465999942,[-0.14907407407407408],[-0.05925925925925926],[1],[0],[0],[1.5729912999959197],['Target'],,444993,001,2024-10-08_21h16.56.677,Visual Search Task_tutorial,2024.1.5,None,2024-10-08 21h17.05.108594 +0530,
63,0,63,0,111.58471270000155,,111.52575610000349,,111.58471270000155,111.58471270000155,0.04117289998976048,112.74818779999623,[-0.17685185185185184],[-0.1111111111111111],[1],[0],[0],[1.1815290999948047],['Target'],10,444993,001,2024-10-08_21h16.56.677,Visual Search Task_tutorial,2024.1.5,None,2024-10-08 21h17.05.108594 +0530,
64,0,64,0,112.81040699999721,,112.75323960000242,,112.81040699999721,112.81040699999721,0.040539699999499135,114.80443030000606,[0.3175925925925926],[0.3074074074074074],[1],[0],[0],[2.011039899996831],['Target'],10,444993,001,2024-10-08_21h16.56.677,Visual Search Task_tutorial,2024.1.5,None,2024-10-08 21h17.05.108594 +0530,
65,0,65,0,114.86689150000166,,114.809451299996,,114.86689150000166,114.86689150000166,0.03978889998688828,117.07475949999935,[0.2851851851851852],[0.4083333333333333],[1],[0],[0],[2.2259841000050073],['Target'],10,444993,001,2024-10-08_21h16.56.677,Visual Search Task_tutorial,2024.1.5,None,2024-10-08 21h17.05.108594 +0530,
66,0,66,0,117.11266879999312,,117.07972449999943,5,117.11266879999312,117.11266879999312,0.021302399996784516,118.36526380000578,[0.20092592592592592],[0.2064814814814815],[1],[0],[0],[1.264684900001157],['Target'],,444993,001,2024-10-08_21h16.56.677,Visual Search Task_tutorial,2024.1.5,None,2024-10-08 21h17.05.108594 +0530,
67,0,67,0,118.40409359999467,,118.36989980000362,5,118.40409359999467,118.40409359999467,0.02076100000704173,120.62967460000073,[0.4203703703703704],[0.013888888888888888],[1],[0],[0],[2.2394444000092335],['Target'],,444993,001,2024-10-08_21h16.56.677,Visual Search Task_tutorial,2024.1.5,None,2024-10-08 21h17.05.108594 +0530,
68,0,68,0,120.66803430000436,,120.63468990000547,5,120.66803430000436,120.66803430000436,0.02098909999767784,122.44424419999996,[0.3472222222222222],[-0.12129629629629629],[1],[0],[0],[1.7889655999897514],['Target'],,444993,001,2024-10-08_21h16.56.677,Visual Search Task_tutorial,2024.1.5,None,2024-10-08 21h17.05.108594 +0530,
69,0,69,0,122.48257300000114,,122.4491049000062,5,122.48257300000114,122.48257300000114,0.020402599999215454,124.37669520000054,[0.35],[0.33055555555555555],[1],[0],[0],[1.9077637000009418],['Target'],,444993,001,2024-10-08_21h16.56.677,Visual Search Task_tutorial,2024.1.5,None,2024-10-08 21h17.05.108594 +0530,
70,0,70,0,124.41413410000678,,124.38138829999662,5,124.41413410000678,124.41413410000678,0.020774200005689636,125.99279950000346,[-0.3074074074074074],[-0.044444444444444446],[1],[0],[0],[1.590991799996118],[],,444993,001,2024-10-08_21h16.56.677,Visual Search Task_tutorial,2024.1.5,None,2024-10-08 21h17.05.108594 +0530,
71,0,71,0,126.02878110000165,,125.99754729999404,5,126.02878110000165,126.02878110000165,0.01917110000795219,127.82337759999791,[-0.08981481481481482],[0.012037037037037037],[1],[0],[0],[1.8070678999938536],['Target'],,444993,001,2024-10-08_21h16.56.677,Visual Search Task_tutorial,2024.1.5,None,2024-10-08 21h17.05.108594 +0530,
72,0,72,0,127.88471800000116,,127.82806260000507,,127.88471800000116,127.88471800000116,0.0396550000004936,129.2619577000005,[0.21388888888888888],[0.35833333333333334],[1],[0],[0],[1.3944757999997819],['Target'],10,444993,001,2024-10-08_21h16.56.677,Visual Search Task_tutorial,2024.1.5,None,2024-10-08 21h17.05.108594 +0530,
73,0,73,0,129.32169159999467,,129.26682780000556,,129.32169159999467,129.32169159999467,0.038158900002599694,131.22453099999984,[0.1527777777777778],[-0.43703703703703706],[1],[0],[0],[1.9199714999995194],[],10,444993,001,2024-10-08_21h16.56.677,Visual Search Task_tutorial,2024.1.5,None,2024-10-08 21h17.05.108594 +0530,
74,0,74,0,131.28692579999915,,131.229190500002,,131.28692579999915,131.28692579999915,0.03998890001093969,132.747649500001,[0.45740740740740743],[-0.13240740740740742],[1],[0],[0],[1.4788240999914706],['Target'],10,444993,001,2024-10-08_21h16.56.677,Visual Search Task_tutorial,2024.1.5,None,2024-10-08 21h17.05.108594 +0530,
75,0,75,0,132.7843017999985,,132.75247059999674,5,132.7843017999985,132.7843017999985,0.01991999999154359,135.13430279999739,[-0.32407407407407407],[0.08148148148148149],[1],[0],[0],[2.36229390000517],[],,444993,001,2024-10-08_21h16.56.677,Visual Search Task_tutorial,2024.1.5,None,2024-10-08 21h17.05.108594 +0530,
76,0,76,0,135.19574280000234,,135.13914850000583,,135.19574280000234,135.19574280000234,0.03896199999144301,136.45175700000254,[-0.3111111111111111],[0.2101851851851852],[1],[0],[0],[1.2739886000053957],['Target'],10,444993,001,2024-10-08_21h16.56.677,Visual Search Task_tutorial,2024.1.5,None,2024-10-08 21h17.05.108594 +0530,
77,0,77,0,136.50794399999722,,136.45628759999818,,136.50794399999722,136.50794399999722,0.03460539999650791,137.90169749999768,[0.2657407407407407],[0.2759259259259259],[1],[0],[0],[1.4110584000009112],['Target'],10,444993,001,2024-10-08_21h16.56.677,Visual Search Task_tutorial,2024.1.5,None,2024-10-08 21h17.05.108594 +0530,
78,0,78,0,137.93933160000597,,137.9065561000025,5,137.93933160000597,137.93933160000597,0.020548499989672564,139.19632519999868,[-0.26296296296296295],[0.08055555555555556],[1],[0],[0],[1.2696579999901587],['Target'],,444993,001,2024-10-08_21h16.56.677,Visual Search Task_tutorial,2024.1.5,None,2024-10-08 21h17.05.108594 +0530,
79,0,79,0,139.2564640000055,,139.20104749999882,,139.2564640000055,139.2564640000055,0.0398334000055911,140.71197390000452,[-0.075],[-0.0824074074074074],[1],[0],[0],[1.4714698999887332],['Target'],10,444993,001,2024-10-08_21h16.56.677,Visual Search Task_tutorial,2024.1.5,None,2024-10-08 21h17.05.108594 +0530,
80,0,80,0,140.74946920000366,,140.71666049999476,5,140.74946920000366,140.74946920000366,0.02029960000072606,142.1106487999932,[-0.362962962962963],[0.10185185185185185],[1],[0],[0],[1.3740770000003977],['Target'],,444993,001,2024-10-08_21h16.56.677,Visual Search Task_tutorial,2024.1.5,None,2024-10-08 21h17.05.108594 +0530,
81,0,81,0,142.14973730000202,,142.11548530000437,5,142.14973730000202,142.14973730000202,0.02131740000913851,143.32519590000447,[-0.11296296296296296],[0.09722222222222222],[1],[0],[0],[1.1887820999982068],['Target'],,444993,001,2024-10-08_21h16.56.677,Visual Search Task_tutorial,2024.1.5,None,2024-10-08 21h17.05.108594 +0530,
82,0,82,0,143.38700089999475,,143.32994860000326,,143.38700089999475,143.38700089999475,0.03945179999573156,146.06488750000426,[-0.19444444444444445],[0.42777777777777776],[1],[0],[0],[2.695872700001928],['Target'],10,444993,001,2024-10-08_21h16.56.677,Visual Search Task_tutorial,2024.1.5,None,2024-10-08 21h17.05.108594 +0530,
83,0,83,0,146.10129019999295,,146.06967559999612,5,146.10129019999295,146.10129019999295,0.019379499994101934,148.6543762999936,[0.4083333333333333],[-0.43703703703703706],[1],[0],[0],[2.5657242000015685],['Target'],,444993,001,2024-10-08_21h16.56.677,Visual Search Task_tutorial,2024.1.5,None,2024-10-08 21h17.05.108594 +0530,
84,0,84,0,148.7152708999929,,148.6589418999938,,148.7152708999929,148.7152708999929,0.03828330000396818,150.84882810000272,[-0.3314814814814815],[0.3962962962962963],[1],[0],[0],[2.1519727999984752],['Target'],10,444993,001,2024-10-08_21h16.56.677,Visual Search Task_tutorial,2024.1.5,None,2024-10-08 21h17.05.108594 +0530,
85,0,85,0,150.91199969999434,,150.853895799999,,150.91199969999434,150.91199969999434,0.040716799994697794,152.48255960000097,[-0.4287037037037037],[-0.3277777777777778],[1],[0],[0],[1.5883704000007128],['Target'],10,444993,001,2024-10-08_21h16.56.677,Visual Search Task_tutorial,2024.1.5,None,2024-10-08 21h17.05.108594 +0530,
86,0,86,0,152.52113259999896,,152.4874542000034,5,152.52113259999896,152.52113259999896,0.021886199989239685,153.85060720000183,[0.17314814814814813],[0.3712962962962963],[1],[0],[0],[1.3414730000076815],['Target'],,444993,001,2024-10-08_21h16.56.677,Visual Search Task_tutorial,2024.1.5,None,2024-10-08 21h17.05.108594 +0530,
87,0,87,0,153.88808200000494,,153.85536960000172,5,153.88808200000494,153.88808200000494,0.0199239000066882,155.46686319999571,[0.22407407407407406],[-0.12777777777777777],[1],[0],[0],[1.5917944999964675],['Target'],,444993,001,2024-10-08_21h16.56.677,Visual Search Task_tutorial,2024.1.5,None,2024-10-08 21h17.05.108594 +0530,
88,0,88,0,155.50309860000561,,155.47201420000056,5,155.50309860000561,155.50309860000561,0.019018299994058907,156.73096270000678,[0.3194444444444444],[0.04722222222222222],[1],[0],[0],[1.240396499997587],['Target'],,444993,001,2024-10-08_21h16.56.677,Visual Search Task_tutorial,2024.1.5,None,2024-10-08 21h17.05.108594 +0530,
89,0,89,0,156.7673955000064,,156.73561869999685,5,156.7673955000064,156.7673955000064,0.019741600000998005,158.29593629999727,[-0.06296296296296296],[-0.44537037037037036],[1],[0],[0],[1.5409225999901537],['Target'],,444993,001,2024-10-08_21h16.56.677,Visual Search Task_tutorial,2024.1.5,None,2024-10-08 21h17.05.108594 +0530,
90,0,90,0,158.33235830000194,,158.30054529999325,5,158.33235830000194,158.33235830000194,0.019705300001078285,160.11136959999567,[-0.3453703703703704],[0.2916666666666667],[1],[0],[0],[1.7914956000022357],['Target'],,444993,001,2024-10-08_21h16.56.677,Visual Search Task_tutorial,2024.1.5,None,2024-10-08 21h17.05.108594 +0530,
91,0,91,0,160.18993429999682,,160.11590380000416,,160.18993429999682,160.18993429999682,0.0553595000092173,162.1260384000052,[0.412962962962963],[0.25833333333333336],[1],[0],[0],[1.9549631999980193],['Target'],10,444993,001,2024-10-08_21h16.56.677,Visual Search Task_tutorial,2024.1.5,None,2024-10-08 21h17.05.108594 +0530,
92,0,92,0,162.18447079999896,,162.13081909999892,,162.18447079999896,162.18447079999896,0.037299400006304495,163.82117890000518,[0.062037037037037036],[0.30185185185185187],[1],[0],[0],[1.6535574999870732],[],10,444993,001,2024-10-08_21h16.56.677,Visual Search Task_tutorial,2024.1.5,None,2024-10-08 21h17.05.108594 +0530,
93,0,93,0,163.88382889999775,,163.8260428000067,,163.88382889999775,163.88382889999775,0.038386000000173226,165.96436070000345,[-0.004629629629629629],[-0.4083333333333333],[1],[0],[0],[2.100111299994751],['Target'],10,444993,001,2024-10-08_21h16.56.677,Visual Search Task_tutorial,2024.1.5,None,2024-10-08 21h17.05.108594 +0530,
94,0,94,0,166.02155109999876,,165.97177469999588,5,166.02155109999876,166.02155109999876,0.030153900006553158,167.75454409999656,[-0.41944444444444445],[-0.2638888888888889],[1],[0],[0],[1.75358899999992],['Target'],,444993,001,2024-10-08_21h16.56.677,Visual Search Task_tutorial,2024.1.5,None,2024-10-08 21h17.05.108594 +0530,
95,0,95,0,167.7994064999948,,167.7604422000004,5,167.7994064999948,167.7994064999948,0.023981700011063367,169.20306660000642,[-0.20925925925925926],[-0.4981481481481482],[1],[0],[0],[1.419451099995058],[],,444993,001,2024-10-08_21h16.56.677,Visual Search Task_tutorial,2024.1.5,None,2024-10-08 21h17.05.108594 +0530,
96,0,96,0,169.2650341999979,,169.20725999999559,,169.2650341999979,169.2650341999979,0.038562400004593655,171.0872445999994,[-0.028703703703703703],[0.4462962962962963],[1],[0],[0],[1.841663499988499],['Target'],10,444993,001,2024-10-08_21h16.56.677,Visual Search Task_tutorial,2024.1.5,None,2024-10-08 21h17.05.108594 +0530,
97,0,97,0,171.14495590000297,,171.0908516000054,,171.14495590000297,171.14495590000297,0.03605129999050405,172.83329730000696,[-0.36666666666666664],[0.03518518518518519],[1],[0],[0],[1.7065338999964297],['Target'],10,444993,001,2024-10-08_21h16.56.677,Visual Search Task_tutorial,2024.1.5,None,2024-10-08 21h17.05.108594 +0530,
98,0,98,0,172.89314770000055,,172.83757960000366,,172.89314770000055,172.89314770000055,0.03671369999938179,174.18109709999408,[-0.12777777777777777],[0.37407407407407406],[1],[0],[0],[1.3069963000016287],[],10,444993,001,2024-10-08_21h16.56.677,Visual Search Task_tutorial,2024.1.5,None,2024-10-08 21h17.05.108594 +0530,
99,0,99,0,174.20990649999294,,174.18461179999576,5,174.20990649999294,174.20990649999294,0.014969600000767969,176.27963380000438,[0.46296296296296297],[-0.25],[1],[0],[0],[2.080087199996342],[],,444993,001,2024-10-08_21h16.56.677,Visual Search Task_tutorial,2024.1.5,None,2024-10-08 21h17.05.108594 +0530,
100,0,100,0,176.31778589999885,,176.2853277999966,5,176.31778589999885,176.31778589999885,0.020221799990395084,177.8958180000045,[0.08796296296296297],[-0.2638888888888889],[1],[0],[0],[1.590601300005801],['Target'],,444993,001,2024-10-08_21h16.56.677,Visual Search Task_tutorial,2024.1.5,None,2024-10-08 21h17.05.108594 +0530,
101,0,101,0,177.9325722000067,,177.90065720000712,5,177.9325722000067,177.9325722000067,0.019846099996357225,179.21020030000363,[0.375],[-0.13703703703703704],[1],[0],[0],[1.2900719000026584],[],,444993,001,2024-10-08_21h16.56.677,Visual Search Task_tutorial,2024.1.5,None,2024-10-08 21h17.05.108594 +0530,
102,0,102,0,179.27193160000024,,179.21490180000546,,179.27193160000024,179.27193160000024,0.039257399999769405,180.36361909999687,[0.3055555555555556],[-0.36666666666666664],[1],[0],[0],[1.1098376000009011],['Target'],10,444993,001,2024-10-08_21h16.56.677,Visual Search Task_tutorial,2024.1.5,None,2024-10-08 21h17.05.108594 +0530,
103,0,103,0,180.4004746999999,,180.36981269999524,5,180.4004746999999,180.4004746999999,0.01939729999867268,181.52436539999326,[0.18796296296296297],[0.12037037037037036],[1],[0],[0],[1.1357908000063617],['Target'],,444993,001,2024-10-08_21h16.56.677,Visual Search Task_tutorial,2024.1.5,None,2024-10-08 21h17.05.108594 +0530,
104,0,104,0,181.56280569999944,,181.5291070999956,5,181.56280569999944,181.56280569999944,0.02090820000739768,182.87396389999776,[-0.3509259259259259],[-0.07314814814814814],[1],[0],[0],[1.3243784999940544],['Target'],,444993,001,2024-10-08_21h16.56.677,Visual Search Task_tutorial,2024.1.5,None,2024-10-08 21h17.05.108594 +0530,
105,0,105,0,182.9268402000016,,182.88007660000585,5,182.9268402000016,182.9268402000016,0.027814800007035956,184.2556443999929,[-0.19537037037037036],[0.3314814814814815],[1],[0],[0],[1.3481107999978121],[],,444993,001,2024-10-08_21h16.56.677,Visual Search Task_tutorial,2024.1.5,None,2024-10-08 21h17.05.108594 +0530,
106,0,106,0,184.29050560000178,,184.260194100003,5,184.29050560000178,184.29050560000178,0.018717600003583357,186.02038000000175,[0.03333333333333333],[-0.007407407407407408],[1],[0],[0],[1.7419045999995433],['Target'],,444993,001,2024-10-08_21h16.56.677,Visual Search Task_tutorial,2024.1.5,None,2024-10-08 21h17.05.108594 +0530,
107,0,107,0,186.0822685000021,,186.0250711999979,,186.0822685000021,186.0822685000021,0.04036300000734627,188.21458850000636,[0.3527777777777778],[0.2740740740740741],[1],[0],[0],[2.149535400007153],['Target'],10,444993,001,2024-10-08_21h16.56.677,Visual Search Task_tutorial,2024.1.5,None,2024-10-08 21h17.05.108594 +0530,
108,0,108,0,188.25338369999372,,188.2196396000072,5,188.25338369999372,188.25338369999372,0.02131530000769999,189.5016387999931,[-0.38981481481481484],[0.03796296296296296],[1],[0],[0],[1.2611283000005642],[],,444993,001,2024-10-08_21h16.56.677,Visual Search Task_tutorial,2024.1.5,None,2024-10-08 21h17.05.108594 +0530,
109,0,109,0,189.5632162999973,,189.50654740000027,,189.5632162999973,189.5632162999973,0.03871189999335911,190.49924109999847,[-0.13425925925925927],[0.022222222222222223],[1],[0],[0],[0.9543768000003183],['Target'],10,444993,001,2024-10-08_21h16.56.677,Visual Search Task_tutorial,2024.1.5,None,2024-10-08 21h17.05.108594 +0530,
110,0,110,0,190.53613779999432,,190.5040025000053,5,190.53613779999432,190.53613779999432,0.020070200000191107,191.60036969999783,[0.0787037037037037],[-0.06574074074074074],[1],[0],[0],[1.0766792999929748],[],,444993,001,2024-10-08_21h16.56.677,Visual Search Task_tutorial,2024.1.5,None,2024-10-08 21h17.05.108594 +0530,
111,0,111,0,191.6644779000053,,191.6053130000073,,191.6644779000053,191.6644779000053,0.041212399999494664,192.6138110000029,[0.16574074074074074],[-0.2675925925925926],[1],[0],[0],[0.9678033999953186],['Target'],10,444993,001,2024-10-08_21h16.56.677,Visual Search Task_tutorial,2024.1.5,None,2024-10-08 21h17.05.108594 +0530,
112,0,112,0,192.65310239999963,,192.61866710000322,5,192.65310239999963,192.65310239999963,0.02230989999952726,193.89700670000457,[0.5074074074074074],[-0.2675925925925926],[1],[0],[0],[1.256525300006615],[],,444993,001,2024-10-08_21h16.56.677,Visual Search Task_tutorial,2024.1.5,None,2024-10-08 21h17.05.108594 +0530,
113,0,113,0,193.9358121999976,,193.90165899999556,5,193.9358121999976,193.9358121999976,0.01944480001111515,195.21213210000133,[-0.13333333333333333],[-0.3787037037037037],[1],[0],[0],[1.2914260999968974],['Target'],,444993,001,2024-10-08_21h16.56.677,Visual Search Task_tutorial,2024.1.5,None,2024-10-08 21h17.05.108594 +0530,
114,0,114,0,195.26969830000598,,195.21667540000635,,195.26969830000598,195.26969830000598,0.03590620000613853,197.0387774999981,[-0.42962962962962964],[0.37222222222222223],[1],[0],[0],[1.7865349000057904],['Target'],10,444993,001,2024-10-08_21h16.56.677,Visual Search Task_tutorial,2024.1.5,None,2024-10-08 21h17.05.108594 +0530,
115,0,115,0,197.07822080000187,,197.04475580000144,5,197.07822080000187,197.07822080000187,0.021069499998702668,198.89273120000144,[0.47314814814814815],[-0.14907407407407408],[1],[0],[0],[1.8278073000110453],['Target'],,444993,001,2024-10-08_21h16.56.677,Visual Search Task_tutorial,2024.1.5,None,2024-10-08 21h17.05.108594 +0530,
116,0,116,0,198.9542805999954,,198.89773500000592,,198.9542805999954,198.9542805999954,0.03926819999469444,200.12854190000508,[-0.025925925925925925],[-0.41388888888888886],[1],[0],[0],[1.191910800000187],['Target'],10,444993,001,2024-10-08_21h16.56.677,Visual Search Task_tutorial,2024.1.5,None,2024-10-08 21h17.05.108594 +0530,
117,0,117,0,200.16532919999736,,200.13319310000225,5,200.16532919999736,200.16532919999736,0.02032740000868216,201.37348799999745,[0.06574074074074074],[0.15833333333333333],[1],[0],[0],[1.2202683999930741],['Target'],,444993,001,2024-10-08_21h16.56.677,Visual Search Task_tutorial,2024.1.5,None,2024-10-08 21h17.05.108594 +0530,
118,0,118,0,201.4125600999978,,201.37853260000702,5,201.4125600999978,201.4125600999978,0.020965799994883128,202.92134950000036,[0.08796296296296297],[-0.35555555555555557],[1],[0],[0],[1.5223007000022335],['Target'],,444993,001,2024-10-08_21h16.56.677,Visual Search Task_tutorial,2024.1.5,None,2024-10-08 21h17.05.108594 +0530,
119,0,119,0,202.98567039999762,,202.9264092999947,,202.98567039999762,202.98567039999762,0.04027019999921322,204.32190969999647,[-0.11851851851851852],[0.2537037037037037],[1],[0],[0],[1.355809800006682],['Target'],10,444993,001,2024-10-08_21h16.56.677,Visual Search Task_tutorial,2024.1.5,None,2024-10-08 21h17.05.108594 +0530,
120,0,120,0,204.38330689999566,,204.32663929999399,,204.38330689999566,204.38330689999566,0.03887920000124723,206.23524880000332,[-0.17777777777777778],[-0.3388888888888889],[1],[0],[0],[1.8701310000033118],['Target'],10,444993,001,2024-10-08_21h16.56.677,Visual Search Task_tutorial,2024.1.5,None,2024-10-08 21h17.05.108594 +0530,
121,0,121,0,206.29736120000598,,206.2399121000053,,206.29736120000598,206.29736120000598,0.040638400008901954,208.0389611999999,[-0.26296296296296295],[-0.425],[1],[0],[0],[1.758764099999098],[],10,444993,001,2024-10-08_21h16.56.677,Visual Search Task_tutorial,2024.1.5,None,2024-10-08 21h17.05.108594 +0530,
122,0,122,0,208.0969757999992,,208.0436175000068,,208.0969757999992,208.0969757999992,0.037574199988739565,209.71106600000348,[-0.23055555555555557],[0.15555555555555556],[1],[0],[0],[1.6302421000000322],['Target'],10,444993,001,2024-10-08_21h16.56.677,Visual Search Task_tutorial,2024.1.5,None,2024-10-08 21h17.05.108594 +0530,
123,0,123,0,209.77162090000638,,209.7158466999972,,209.77162090000638,209.77162090000638,0.03827699999965262,212.08107749999908,[0.18055555555555555],[0.4203703703703704],[1],[0],[0],[2.327418500004569],[],10,444993,001,2024-10-08_21h16.56.677,Visual Search Task_tutorial,2024.1.5,None,2024-10-08 21h17.05.108594 +0530,
124,0,124,0,212.1296372999932,,212.0848025000014,,212.1296372999932,212.1296372999932,0.03022699999564793,213.46169050000026,[0.1675925925925926],[0.026851851851851852],[1],[0],[0],[1.346893199995975],[],10,444993,001,2024-10-08_21h16.56.677,Visual Search Task_tutorial,2024.1.5,None,2024-10-08 21h17.05.108594 +0530,
125,0,125,0,213.51714369999536,,213.4659554999962,,213.51714369999536,213.51714369999536,0.035942999995313585,214.38536329999624,[0.35555555555555557],[-0.032407407407407406],[1],[0],[0],[0.8837153999920702],[],10,444993,001,2024-10-08_21h16.56.677,Visual Search Task_tutorial,2024.1.5,None,2024-10-08 21h17.05.108594 +0530,
126,0,126,0,214.44671380000364,,214.39019089999783,,214.44671380000364,214.44671380000364,0.03909610000846442,215.39719489999698,[0.32037037037037036],[0.044444444444444446],[1],[0],[0],[0.9683491999894613],['Target'],10,444993,001,2024-10-08_21h16.56.677,Visual Search Task_tutorial,2024.1.5,None,2024-10-08 21h17.05.108594 +0530,
127,0,127,0,215.43413080000028,,215.40198989999772,5,215.43413080000028,215.43413080000028,0.020349500002339482,216.77705990000686,[0.2037037037037037],[-0.4074074074074074],[1],[0],[0],[1.3552206000022124],[],,444993,001,2024-10-08_21h16.56.677,Visual Search Task_tutorial,2024.1.5,None,2024-10-08 21h17.05.108594 +0530,
128,0,128,0,216.8375851000019,,216.78168119999464,,216.8375851000019,216.8375851000019,0.03888579999329522,218.993424100001,[0.21574074074074073],[-0.15092592592592594],[1],[0],[0],[2.1732167000009213],['Target'],10,444993,001,2024-10-08_21h16.56.677,Visual Search Task_tutorial,2024.1.5,None,2024-10-08 21h17.05.108594 +0530,
129,0,129,0,219.03075849999732,,218.9979744000011,5,219.03075849999732,219.03075849999732,0.020341600000392646,220.32280930000707,[0.1],[0.05462962962962963],[1],[0],[0],[1.3049067999963881],['Target'],,444993,001,2024-10-08_21h16.56.677,Visual Search Task_tutorial,2024.1.5,None,2024-10-08 21h17.05.108594 +0530,
130,0,130,0,220.38344400000642,,220.3273479000054,,220.38344400000642,220.38344400000642,0.0389145999943139,222.3323570000066,[-0.21388888888888888],[0.41388888888888886],[1],[0],[0],[1.9663685000123223],['Target'],10,444993,001,2024-10-08_21h16.56.677,Visual Search Task_tutorial,2024.1.5,None,2024-10-08 21h17.05.108594 +0530,
131,0,131,0,222.36925889999839,,222.33721409999998,5,222.36925889999839,222.36925889999839,0.019695400013006292,223.71969250000257,[-0.19814814814814816],[-0.04722222222222222],[1],[0],[0],[1.363193199998932],['Target'],,444993,001,2024-10-08_21h16.56.677,Visual Search Task_tutorial,2024.1.5,None,2024-10-08 21h17.05.108594 +0530,
132,0,132,0,223.79536319999897,,223.72437389999686,,223.79536319999897,223.79536319999897,0.048908299999311566,225.79239360000065,[0.10648148148148148],[0.28703703703703703],[1],[0],[0],[2.0194933000020683],['Target'],10,444993,001,2024-10-08_21h16.56.677,Visual Search Task_tutorial,2024.1.5,None,2024-10-08 21h17.05.108594 +0530,
133,0,133,0,225.85498319999897,,225.79738519999955,,225.85498319999897,225.85498319999897,0.04097859999455977,227.34091389999958,[0.26666666666666666],[-0.15833333333333333],[1],[0],[0],[1.5027382999978727],['Target'],10,444993,001,2024-10-08_21h16.56.677,Visual Search Task_tutorial,2024.1.5,None,2024-10-08 21h17.05.108594 +0530,
134,0,134,0,227.40735199999472,,227.34607450000476,,227.40735199999472,227.40735199999472,0.045356300004641525,229.82429439999396,[-0.15462962962962962],[0.4111111111111111],[1],[0],[0],[2.433284899991122],['Target'],10,444993,001,2024-10-08_21h16.56.677,Visual Search Task_tutorial,2024.1.5,None,2024-10-08 21h17.05.108594 +0530,
135,0,135,0,229.86042810000072,,229.82916459999979,5,229.86042810000072,229.86042810000072,0.018970000004628673,231.13001860000077,[0.21944444444444444],[0.2324074074074074],[1],[0],[0],[1.282234400001471],['Target'],,444993,001,2024-10-08_21h16.56.677,Visual Search Task_tutorial,2024.1.5,None,2024-10-08 21h17.05.108594 +0530,
136,0,136,0,231.19237879999855,,231.1356964000006,,231.19237879999855,231.19237879999855,0.04010649998963345,232.2969180999935,[-0.004629629629629629],[0.10833333333333334],[1],[0],[0],[1.1219385000003967],['Target'],10,444993,001,2024-10-08_21h16.56.677,Visual Search Task_tutorial,2024.1.5,None,2024-10-08 21h17.05.108594 +0530,
137,0,137,0,232.3575880999997,,232.30158610000217,,232.3575880999997,232.3575880999997,0.03877169999759644,234.08969660000002,[0.2657407407407407],[-0.49444444444444446],[1],[0],[0],[1.7498051000002306],['Target'],10,444993,001,2024-10-08_21h16.56.677,Visual Search Task_tutorial,2024.1.5,None,2024-10-08 21h17.05.108594 +0530,
138,0,138,0,234.15068160000374,,234.0945933000039,,234.15068160000374,234.15068160000374,0.03800619998946786,235.80222219999996,[0.1675925925925926],[0.23148148148148148],[1],[0],[0],[1.670051400011289],['Target'],10,444993,001,2024-10-08_21h16.56.677,Visual Search Task_tutorial,2024.1.5,None,2024-10-08 21h17.05.108594 +0530,
139,0,139,0,235.86463549999462,,235.80724290000217,,235.86463549999462,235.86463549999462,0.03942430000461172,238.53954549999617,[0.2657407407407407],[0.19444444444444445],[1],[0],[0],[2.69340230000671],['Target'],10,444993,001,2024-10-08_21h16.56.677,Visual Search Task_tutorial,2024.1.5,None,2024-10-08 21h17.05.108594 +0530,
140,0,140,0,238.56917149999936,,238.54337970000051,5,238.56917149999936,238.56917149999936,0.015452099993126467,239.77219360000163,[0.1814814814814815],[0.31574074074074077],[1],[0],[0],[1.2135526000056416],['Target'],,444993,001,2024-10-08_21h16.56.677,Visual Search Task_tutorial,2024.1.5,None,2024-10-08 21h17.05.108594 +0530,
141,0,141,0,239.85371169999416,,239.77861300000222,,239.85371169999416,239.85371169999416,0.038983999998890795,241.07450509999762,[0.35],[0.41203703703703703],[1],[0],[0],[1.2574441999895498],['Target'],10,444993,001,2024-10-08_21h16.56.677,Visual Search Task_tutorial,2024.1.5,None,2024-10-08 21h17.05.108594 +0530,
142,0,142,0,241.13871810000273,,241.07992319999903,,241.13871810000273,241.13871810000273,0.04202310000255238,242.26460470000166,[0.42777777777777776],[0.3314814814814815],[1],[0],[0],[1.143053499996313],[],10,444993,001,2024-10-08_21h16.56.677,Visual Search Task_tutorial,2024.1.5,None,2024-10-08 21h17.05.108594 +0530,
143,0,143,0,242.30140339999343,,242.2695442999975,5,242.30140339999343,242.30140339999343,0.019835400002193637,244.33451479999349,[0.41944444444444445],[-0.3212962962962963],[1],[0],[0],[2.0454256999946665],['Target'],,444993,001,2024-10-08_21h16.56.677,Visual Search Task_tutorial,2024.1.5,None,2024-10-08 21h17.05.108594 +0530,
144,0,144,0,244.37504119999357,,244.33970579999732,5,244.37504119999357,244.37504119999357,0.022214800002984703,245.39996310000424,[0.4675925925925926],[0.2601851851851852],[1],[0],[0],[1.0386402000003727],['Target'],,444993,001,2024-10-08_21h16.56.677,Visual Search Task_tutorial,2024.1.5,None,2024-10-08 21h17.05.108594 +0530,
145,0,145,0,245.47966019999876,,245.40620349999517,,245.47966019999876,245.47966019999876,0.05016309999336954,246.77223129999766,[0.4601851851851852],[0.32407407407407407],[1],[0],[0],[1.316456599990488],['Target'],10,444993,001,2024-10-08_21h16.56.677,Visual Search Task_tutorial,2024.1.5,None,2024-10-08 21h17.05.108594 +0530,
146,0,146,0,246.81065290000697,,246.776973,5,246.81065290000697,246.81065290000697,0.02121120000083465,248.49779179999314,[-0.25833333333333336],[-0.46111111111111114],[1],[0],[0],[1.6999950999888824],['Target'],,444993,001,2024-10-08_21h16.56.677,Visual Search Task_tutorial,2024.1.5,None,2024-10-08 21h17.05.108594 +0530,
147,0,147,0,248.53381900000386,,248.5025134000025,5,248.53381900000386,248.53381900000386,0.019224900010158308,250.46275500000047,[0.3592592592592593],[-0.2898148148148148],[1],[0],[0],[1.9414435000071535],['Target'],,444993,001,2024-10-08_21h16.56.677,Visual Search Task_tutorial,2024.1.5,None,2024-10-08 21h17.05.108594 +0530,
148,0,148,0,250.52470209999592,,250.46749880000425,,250.52470209999592,250.52470209999592,0.04022159999294672,252.69150279999303,[-0.020370370370370372],[0.17222222222222222],[1],[0],[0],[2.184282500005793],['Target'],10,444993,001,2024-10-08_21h16.56.677,Visual Search Task_tutorial,2024.1.5,None,2024-10-08 21h17.05.108594 +0530,
149,0,149,0,252.75814239999454,,252.69634229999792,,252.75814239999454,252.75814239999454,0.040089300004183315,255.06197399999655,[-0.028703703703703703],[-0.4425925925925926],[1],[0],[0],[2.3257786000031047],['Target'],10,444993,001,2024-10-08_21h16.56.677,Visual Search Task_tutorial,2024.1.5,None,2024-10-08 21h17.05.108594 +0530,
150,0,150,0,255.11990380000498,,255.06705680000596,,255.11990380000498,255.11990380000498,0.03688270000566263,256.63223400000425,[-0.3962962962962963],[-0.001851851851851852],[1],[0],[0],[1.5286607000016375],[],10,444993,001,2024-10-08_21h16.56.677,Visual Search Task_tutorial,2024.1.5,None,2024-10-08 21h17.05.108594 +0530,
151,0,151,0,256.67032659999677,,256.63708139999653,5,256.67032659999677,256.67032659999677,0.021103200007928535,258.089258699998,[-0.046296296296296294],[-0.24259259259259258],[1],[0],[0],[1.4314454999985173],['Target'],,444993,001,2024-10-08_21h16.56.677,Visual Search Task_tutorial,2024.1.5,None,2024-10-08 21h17.05.108594 +0530,
152,0,152,0,258.1497364999959,,258.0940372000041,,258.1497364999959,258.1497364999959,0.03847640000458341,259.74128020000353,[0.21666666666666667],[-0.022222222222222223],[1],[0],[0],[1.609244999999646],['Target'],10,444993,001,2024-10-08_21h16.56.677,Visual Search Task_tutorial,2024.1.5,None,2024-10-08 21h17.05.108594 +0530,
153,0,153,0,259.77609470000607,,259.74586300000374,5,259.77609470000607,259.77609470000607,0.018573599998489954,261.1198684999981,[-0.12407407407407407],[0.41203703703703703],[1],[0],[0],[1.3557534999999916],['Target'],,444993,001,2024-10-08_21h16.56.677,Visual Search Task_tutorial,2024.1.5,None,2024-10-08 21h17.05.108594 +0530,
154,0,154,0,261.1836673999933,,261.12516559999494,,261.1836673999933,261.1836673999933,0.04185719999077264,262.8236790999945,[-0.09351851851851851],[0.06481481481481481],[1],[0],[0],[1.6572554000013042],['Target'],10,444993,001,2024-10-08_21h16.56.677,Visual Search Task_tutorial,2024.1.5,None,2024-10-08 21h17.05.108594 +0530,
155,0,155,0,262.88339099999575,,262.82831630000146,,262.88339099999575,262.88339099999575,0.03836209999280982,264.0913292000041,[-0.3925925925925926],[0.18888888888888888],[1],[0],[0],[1.2250119000091217],['Target'],10,444993,001,2024-10-08_21h16.56.677,Visual Search Task_tutorial,2024.1.5,None,2024-10-08 21h17.05.108594 +0530,
156,0,156,0,264.1507374000066,,264.0962901000021,,264.1507374000066,264.1507374000066,0.038059300000895746,265.632210900003,[0.17685185185185184],[0.1712962962962963],[1],[0],[0],[1.4982021000032546],['Target'],10,444993,001,2024-10-08_21h16.56.677,Visual Search Task_tutorial,2024.1.5,None,2024-10-08 21h17.05.108594 +0530,
157,0,157,0,265.69512030000624,,265.6374027999991,,265.69512030000624,265.69512030000624,0.03918849999899976,266.5737877000065,[0.24074074074074073],[0.09444444444444444],[1],[0],[0],[0.897634900000412],[],10,444993,001,2024-10-08_21h16.56.677,Visual Search Task_tutorial,2024.1.5,None,2024-10-08 21h17.05.108594 +0530,
158,0,158,0,266.63729080000485,,266.57992200000444,,266.63729080000485,266.63729080000485,0.040186300000641495,268.136087699997,[0.16018518518518518],[-0.26481481481481484],[1],[0],[0],[1.5165200000046752],['Target'],10,444993,001,2024-10-08_21h16.56.677,Visual Search Task_tutorial,2024.1.5,None,2024-10-08 21h17.05.108594 +0530,
159,0,159,0,268.1947033000033,,268.1408606000041,,268.1947033000033,268.1947033000033,0.03779769998800475,269.848201300003,[-0.0787037037037037],[-0.425],[1],[0],[0],[1.6700629999977536],['Target'],10,444993,001,2024-10-08_21h16.56.677,Visual Search Task_tutorial,2024.1.5,None,2024-10-08 21h17.05.108594 +0530,
160,0,160,0,269.92104129999643,,269.8534176999965,,269.92104129999643,269.92104129999643,0.04170460000750609,271.2743322000024,[0.1537037037037037],[0.21296296296296297],[1],[0],[0],[1.3796201999939512],['Target'],10,444993,001,2024-10-08_21h16.56.677,Visual Search Task_tutorial,2024.1.5,None,2024-10-08 21h17.05.108594 +0530,
161,0,161,0,271.3364937000006,,271.27911190000304,,271.3364937000006,271.3364937000006,0.04009169999335427,272.39805380000325,[0.20462962962962963],[0.06111111111111111],[1],[0],[0],[1.079277800003183],['Target'],10,444993,001,2024-10-08_21h16.56.677,Visual Search Task_tutorial,2024.1.5,None,2024-10-08 21h17.05.108594 +0530,
162,0,162,0,272.45996059999743,,272.4027245000034,,272.45996059999743,272.45996059999743,0.039201100007630885,273.7196863999998,[0.15],[0.24444444444444444],[1],[0],[0],[1.2781947999901604],['Target'],10,444993,001,2024-10-08_21h16.56.677,Visual Search Task_tutorial,2024.1.5,None,2024-10-08 21h17.05.108594 +0530,
163,0,163,0,273.75906500000565,,273.7246612000017,5,273.75906500000565,273.75906500000565,0.021879299994907342,275.1075717000058,[0.32685185185185184],[-0.07962962962962963],[1],[0],[0],[1.361372899991693],[],,444993,001,2024-10-08_21h16.56.677,Visual Search Task_tutorial,2024.1.5,None,2024-10-08 21h17.05.108594 +0530,
164,0,164,0,275.1468495000008,,275.1123007999995,5,275.1468495000008,275.1468495000008,0.02218939999875147,276.6718305999966,[-0.36018518518518516],[0.21851851851851853],[1],[0],[0],[1.5377159000054235],['Target'],,444993,001,2024-10-08_21h16.56.677,Visual Search Task_tutorial,2024.1.5,None,2024-10-08 21h17.05.108594 +0530,
165,0,165,0,276.7108135000017,,276.6767540000001,5,276.7108135000017,276.7108135000017,0.02079260000027716,278.2363774999976,[-0.12314814814814815],[-0.4203703703703704],[1],[0],[0],[1.5392357999953674],[],,444993,001,2024-10-08_21h16.56.677,Visual Search Task_tutorial,2024.1.5,None,2024-10-08 21h17.05.108594 +0530,
166,0,166,0,278.29671300000336,,278.2410155999969,,278.29671300000336,278.29671300000336,0.03992580001067836,279.3613970000006,[0.175],[-0.2777777777777778],[1],[0],[0],[1.080838900001254],['Target'],10,444993,001,2024-10-08_21h16.56.677,Visual Search Task_tutorial,2024.1.5,None,2024-10-08 21h17.05.108594 +0530,
167,0,167,0,279.4005790999945,,279.36633420000726,5,279.4005790999945,279.4005790999945,0.02237589999276679,280.7349542000011,[-0.4027777777777778],[0.08425925925925926],[1],[0],[0],[1.3466565999988234],[],,444993,001,2024-10-08_21h16.56.677,Visual Search Task_tutorial,2024.1.5,None,2024-10-08 21h17.05.108594 +0530,
168,0,168,0,280.79373819999455,,280.7395006000006,,280.79373819999455,280.79373819999455,0.0367712000006577,282.46632809999574,[0.04722222222222222],[0.44814814814814813],[1],[0],[0],[1.6904047999996692],[],10,444993,001,2024-10-08_21h16.56.677,Visual Search Task_tutorial,2024.1.5,None,2024-10-08 21h17.05.108594 +0530,
169,0,169,0,282.5038494000037,,282.4709939000022,5,282.5038494000037,282.5038494000037,0.020595399997546338,284.165642699998,[-0.32592592592592595],[-0.11388888888888889],[1],[0],[0],[1.674398699993617],['Target'],,444993,001,2024-10-08_21h16.56.677,Visual Search Task_tutorial,2024.1.5,None,2024-10-08 21h17.05.108594 +0530,
170,0,170,0,284.20362499999464,,284.17052440000407,5,284.20362499999464,284.20362499999464,0.020757899997988716,285.42997929999547,[-0.33611111111111114],[0.1287037037037037],[1],[0],[0],[1.2390860000014072],['Target'],,444993,001,2024-10-08_21h16.56.677,Visual Search Task_tutorial,2024.1.5,None,2024-10-08 21h17.05.108594 +0530,
171,0,171,0,285.48689299999387,,285.4347967000067,,285.48689299999387,285.48689299999387,0.03600639999785926,286.86349750000227,[-0.4287037037037037],[0.4064814814814815],[1],[0],[0],[1.3931554999871878],['Target'],10,444993,001,2024-10-08_21h16.56.677,Visual Search Task_tutorial,2024.1.5,None,2024-10-08 21h17.05.108594 +0530,
172,0,172,0,286.9006296000007,,286.8681512000039,5,286.9006296000007,286.9006296000007,0.020623499993234873,288.51111110000056,[-0.44537037037037036],[-0.1824074074074074],[1],[0],[0],[1.6227811999997357],['Target'],,444993,001,2024-10-08_21h16.56.677,Visual Search Task_tutorial,2024.1.5,None,2024-10-08 21h17.05.108594 +0530,
173,0,173,0,288.5733076000033,,288.5158960999979,,288.5733076000033,288.5733076000033,0.04080699999758508,289.5748559000058,[-0.13333333333333333],[-0.3175925925925926],[1],[0],[0],[1.0185695000109263],['Target'],10,444993,001,2024-10-08_21h16.56.677,Visual Search Task_tutorial,2024.1.5,None,2024-10-08 21h17.05.108594 +0530,
174,0,174,0,289.6369593999989,,289.57973509999283,,289.6369593999989,289.6369593999989,0.04001050000078976,291.9843448000029,[0.20185185185185187],[0.16666666666666666],[1],[0],[0],[2.365070799991372],['Target'],10,444993,001,2024-10-08_21h16.56.677,Visual Search Task_tutorial,2024.1.5,None,2024-10-08 21h17.05.108594 +0530,
175,0,175,0,292.02269149999483,,291.98928799999703,5,292.02269149999483,292.02269149999483,0.02179079999041278,293.1911320999934,[0.10833333333333334],[0.46574074074074073],[1],[0],[0],[1.1804735000041546],['Target'],,444993,001,2024-10-08_21h16.56.677,Visual Search Task_tutorial,2024.1.5,None,2024-10-08 21h17.05.108594 +0530,
176,0,176,0,293.25230959999317,,293.1958614000032,,293.25230959999317,293.25230959999317,0.03971469998941757,294.97991029999685,[-0.13148148148148148],[-0.2972222222222222],[1],[0],[0],[1.7445342999999411],['Target'],10,444993,001,2024-10-08_21h16.56.677,Visual Search Task_tutorial,2024.1.5,None,2024-10-08 21h17.05.108594 +0530,
177,0,177,0,295.04104359999474,,294.9845983999985,,295.04104359999474,295.04104359999474,0.03942500000994187,297.32899340000586,[0.3638888888888889],[-0.3537037037037037],[1],[0],[0],[2.3052807999920333],['Target'],10,444993,001,2024-10-08_21h16.56.677,Visual Search Task_tutorial,2024.1.5,None,2024-10-08 21h17.05.108594 +0530,
178,0,178,0,297.3671100000065,,297.3339413000067,5,297.3671100000065,297.3671100000065,0.019940300000598654,299.0184498000017,[0.032407407407407406],[-0.4074074074074074],[1],[0],[0],[1.6649378000001889],['Target'],,444993,001,2024-10-08_21h16.56.677,Visual Search Task_tutorial,2024.1.5,None,2024-10-08 21h17.05.108594 +0530,
179,0,179,0,299.0826478999952,,299.023374700002,,299.0826478999952,299.0826478999952,0.040716799994697794,300.45677600000636,[-0.03888888888888889],[0.17685185185185184],[1],[0],[0],[1.3931213000032585],['Target'],10,444993,001,2024-10-08_21h16.56.677,Visual Search Task_tutorial,2024.1.5,None,2024-10-08 21h17.05.108594 +0530,
180,0,180,0,300.51279530000465,,300.46138860000065,,300.51279530000465,300.51279530000465,0.0353871999977855,301.5526140000002,[-0.09351851851851851],[0.23333333333333334],[1],[0],[0],[1.056251300004078],['Target'],10,444993,001,2024-10-08_21h16.56.677,Visual Search Task_tutorial,2024.1.5,None,2024-10-08 21h17.05.108594 +0530,
181,0,181,0,301.61346170000616,,301.5573007000057,,301.61346170000616,301.61346170000616,0.03915240000060294,302.6338079999987,[0.053703703703703705],[0.32037037037037036],[1],[0],[0],[1.03778169999714],[],10,444993,001,2024-10-08_21h16.56.677,Visual Search Task_tutorial,2024.1.5,None,2024-10-08 21h17.05.108594 +0530,
182,0,182,0,302.69346949999453,,302.63845860000583,,302.69346949999453,302.69346949999453,0.03851080000458751,305.0069763000065,[0.1962962962962963],[-0.2851851851851852],[1],[0],[0],[2.330165899998974],[],10,444993,001,2024-10-08_21h16.56.677,Visual Search Task_tutorial,2024.1.5,None,2024-10-08 21h17.05.108594 +0530,
183,0,183,0,305.0760123999935,,305.01316580000275,,305.0760123999935,305.0760123999935,0.04281499999342486,306.36131490000116,[0.1259259259259259],[0.018518518518518517],[1],[0],[0],[1.3058329000050435],['Target'],10,444993,001,2024-10-08_21h16.56.677,Visual Search Task_tutorial,2024.1.5,None,2024-10-08 21h17.05.108594 +0530,
184,0,184,0,306.40782890000264,,306.36516230000416,,306.40782890000264,306.40782890000264,0.029162100006942637,307.76043730000674,[-0.18981481481481483],[-0.31203703703703706],[1],[0],[0],[1.3662824999919394],['Target'],10,444993,001,2024-10-08_21h16.56.677,Visual Search Task_tutorial,2024.1.5,None,2024-10-08 21h17.05.108594 +0530,
185,0,185,0,307.81936910000513,,307.76492469999357,,307.81936910000513,307.81936910000513,0.036602200008928776,309.03146749999723,[-0.412962962962963],[0.023148148148148147],[1],[0],[0],[1.230231100009405],['Target'],10,444993,001,2024-10-08_21h16.56.677,Visual Search Task_tutorial,2024.1.5,None,2024-10-08 21h17.05.108594 +0530,
186,0,186,0,309.09352700000454,,309.03620659999433,,309.09352700000454,309.09352700000454,0.039820999998482876,310.6087300000072,[-0.007407407407407408],[-0.4324074074074074],[1],[0],[0],[1.5332488999993075],['Target'],10,444993,001,2024-10-08_21h16.56.677,Visual Search Task_tutorial,2024.1.5,None,2024-10-08 21h17.05.108594 +0530,
187,0,187,0,310.64562419999857,,310.6142683999933,5,310.64562419999857,310.64562419999857,0.019427999999606982,311.9064185000025,[0.15925925925925927],[-0.07037037037037037],[1],[0],[0],[1.2731602999992901],[],,444993,001,2024-10-08_21h16.56.677,Visual Search Task_tutorial,2024.1.5,None,2024-10-08 21h17.05.108594 +0530,
188,0,188,0,311.94460839999374,,311.91105640000023,5,311.94460839999374,311.94460839999374,0.020363000003271736,313.17142889999377,[0.19444444444444445],[-0.17685185185185184],[1],[0],[0],[1.2404269999969983],[],,444993,001,2024-10-08_21h16.56.677,Visual Search Task_tutorial,2024.1.5,None,2024-10-08 21h17.05.108594 +0530,
189,0,189,0,313.2329361000011,,313.1761533999961,,313.2329361000011,313.2329361000011,0.03974300000118092,315.15214180000476,[0.4444444444444444],[-0.14814814814814814],[1],[0],[0],[1.9367345000064233],['Target'],10,444993,001,2024-10-08_21h16.56.677,Visual Search Task_tutorial,2024.1.5,None,2024-10-08 21h17.05.108594 +0530,
190,0,190,0,315.21492490000674,,315.15720810000494,,315.21492490000674,315.21492490000674,0.03987589999451302,316.762092399993,[-0.18518518518518517],[-0.019444444444444445],[1],[0],[0],[1.5653963000077056],['Target'],10,444993,001,2024-10-08_21h16.56.677,Visual Search Task_tutorial,2024.1.5,None,2024-10-08 21h17.05.108594 +0530,
191,0,191,0,316.7974752000009,,316.7669923999929,5,316.7974752000009,316.7974752000009,0.018951500009279698,318.40007829999377,[0.49907407407407406],[0.2675925925925926],[1],[0],[0],[1.6146528000099352],['Target'],,444993,001,2024-10-08_21h16.56.677,Visual Search Task_tutorial,2024.1.5,None,2024-10-08 21h17.05.108594 +0530,
192,0,192,0,318.4593371999945,,318.404790200002,,318.4593371999945,318.4593371999945,0.03784560000349302,320.1820364000014,[0.1648148148148148],[0.41759259259259257],[1],[0],[0],[1.7398711999994703],['Target'],10,444993,001,2024-10-08_21h16.56.677,Visual Search Task_tutorial,2024.1.5,None,2024-10-08 21h17.05.108594 +0530,
193,0,193,0,320.21805470000254,,320.18676440000127,5,320.21805470000254,320.21805470000254,0.019974099996034056,321.8815451999981,[0.03148148148148148],[0.021296296296296296],[1],[0],[0],[1.6753777999983868],['Target'],,444993,001,2024-10-08_21h16.56.677,Visual Search Task_tutorial,2024.1.5,None,2024-10-08 21h17.05.108594 +0530,
194,0,194,0,321.9430121000041,,321.88625049999973,,321.9430121000041,321.9430121000041,0.03993500000797212,322.75964869999734,[0.05],[0.03981481481481482],[1],[0],[0],[0.8339045000029728],['Target'],10,444993,001,2024-10-08_21h16.56.677,Visual Search Task_tutorial,2024.1.5,None,2024-10-08 21h17.05.108594 +0530,
195,0,195,0,322.81950280000456,,322.764322300005,,322.81950280000456,322.81950280000456,0.03835480000998359,324.22714740000083,[0.42962962962962964],[-0.15185185185185185],[1],[0],[0],[1.4247457000019494],['Target'],10,444993,001,2024-10-08_21h16.56.677,Visual Search Task_tutorial,2024.1.5,None,2024-10-08 21h17.05.108594 +0530,
196,0,196,0,324.28786240000045,,324.23220139999466,,324.28786240000045,324.28786240000045,0.03972250000515487,325.3241863000003,[0.2074074074074074],[-0.08425925925925926],[1],[0],[0],[1.0525496999907773],[],10,444993,001,2024-10-08_21h16.56.677,Visual Search Task_tutorial,2024.1.5,None,2024-10-08 21h17.05.108594 +0530,
197,0,197,0,325.3635229000065,,325.32949469999585,5,325.3635229000065,325.3635229000065,0.021413599999505095,327.1603008999955,[-0.05277777777777778],[-0.44907407407407407],[1],[0],[0],[1.8097388000023784],['Target'],,444993,001,2024-10-08_21h16.56.677,Visual Search Task_tutorial,2024.1.5,None,2024-10-08 21h17.05.108594 +0530,
198,0,198,0,327.2228968999989,,327.1651867000037,,327.2228968999989,327.2228968999989,0.04033760000311304,328.54965669999365,[-0.4759259259259259],[0.20092592592592592],[1],[0],[0],[1.344537400000263],['Target'],10,444993,001,2024-10-08_21h16.56.677,Visual Search Task_tutorial,2024.1.5,None,2024-10-08 21h17.05.108594 +0530,
199,0,199,0,328.5870924000046,,328.5545965000056,5,328.5870924000046,328.5870924000046,0.020501999999396503,330.07305310000083,[-0.1648148148148148],[-0.15648148148148147],[1],[0],[0],[1.49836260000302],['Target'],,444993,001,2024-10-08_21h16.56.677,Visual Search Task_tutorial,2024.1.5,None,2024-10-08 21h17.05.108594 +0530,
