trials.thisRepN,trials.thisTrialN,trials.thisN,trials.thisIndex,thisRow.t,notes,trial.started,num_distr&,Fixation.started,Target.started,mouse.started,trial.stopped,mouse.x,mouse.y,mouse.leftButton,mouse.midButton,mouse.rightButton,mouse.time,mouse.clicked_name,num_distr,participant,session,date,expName,psychopyVersion,frameRate,expStart,
0,0,0,0,0.07499619999725837,,0.009318900003563613,10,0.07499619999725837,0.07499619999725837,0.05483930000627879,2.6565985000052024,[-0.4046296296296296],[0.43796296296296294],[1],[0],[0],[2.600557799989474],['Target'],,919050,001,2024-10-08_21h42.12.870,Visual Search Task_tutorial,2024.1.5,None,2024-10-08 21h42.20.407136 +0530,
1,0,1,0,2.6985158000024967,,2.662774399999762,,2.6985158000024967,2.6985158000024967,0.021408400003565475,3.996828400006052,[-0.21388888888888888],[0.38333333333333336],[1],[0],[0],[1.3130971000064164],['Target'],5,919050,001,2024-10-08_21h42.12.870,Visual Search Task_tutorial,2024.1.5,None,2024-10-08 21h42.20.407136 +0530,
2,0,2,0,4.035401200002525,,4.001600100003998,,4.035401200002525,4.035401200002525,0.021538499990128912,5.894540399996913,[0.337037037037037],[-0.2953703703703704],[1],[0],[0],[1.8718235999986064],['Target'],5,919050,001,2024-10-08_21h42.12.870,Visual Search Task_tutorial,2024.1.5,None,2024-10-08 21h42.20.407136 +0530,
3,0,3,0,5.953784099998302,,5.899293900001794,10,5.953784099998302,5.953784099998302,0.03823779999220278,7.935335700007272,[-0.43333333333333335],[-0.3537037037037037],[1],[0],[0],[1.9981587000074796],['Target'],,919050,001,2024-10-08_21h42.12.870,Visual Search Task_tutorial,2024.1.5,None,2024-10-08 21h42.20.407136 +0530,
4,0,4,0,7.999505100000533,,7.940012000006391,10,7.999505100000533,7.999505100000533,0.04159870000148658,9.80395739999949,[-0.25462962962962965],[0.06574074074074074],[1],[0],[0],[1.8227470999991056],['Target'],,919050,001,2024-10-08_21h42.12.870,Visual Search Task_tutorial,2024.1.5,None,2024-10-08 21h42.20.407136 +0530,
5,0,5,0,9.86345910000091,,9.808527800007141,10,9.86345910000091,9.86345910000091,0.03776930000458378,11.220142999998643,[-0.125],[0.21851851851851853],[1],[0],[0],[1.3742080999945756],['Target'],,919050,001,2024-10-08_21h42.12.870,Visual Search Task_tutorial,2024.1.5,None,2024-10-08 21h42.20.407136 +0530,
6,0,6,0,11.257346800004598,,11.22492360000615,,11.257346800004598,11.257346800004598,0.021031999989645556,13.071612300002016,[-0.31203703703703706],[0.1398148148148148],[1],[0],[0],[1.8260295000072801],['Target'],5,919050,001,2024-10-08_21h42.12.870,Visual Search Task_tutorial,2024.1.5,None,2024-10-08 21h42.20.407136 +0530,
7,0,7,0,13.109829299995909,,13.076268100005109,,13.109829299995909,13.109829299995909,0.02023880000342615,15.235388500004774,[0.027777777777777776],[0.4324074074074074],[1],[0],[0],[2.1392600999970455],['Target'],5,919050,001,2024-10-08_21h42.12.870,Visual Search Task_tutorial,2024.1.5,None,2024-10-08 21h42.20.407136 +0530,
8,0,8,0,15.272503900006996,,15.240032100002281,,15.272503900006996,15.272503900006996,0.020613300002878532,16.86717110000609,[0.3287037037037037],[0.1935185185185185],[1],[0],[0],[1.6069061999878613],['Target'],5,919050,001,2024-10-08_21h42.12.870,Visual Search Task_tutorial,2024.1.5,None,2024-10-08 21h42.20.407136 +0530,
9,0,9,0,16.925907800003188,,16.873497900000075,10,16.925907800003188,16.925907800003188,0.036397699994267896,18.82956500000728,[0.008333333333333333],[0.2824074074074074],[1],[0],[0],[1.9200209000118775],['Target'],,919050,001,2024-10-08_21h42.12.870,Visual Search Task_tutorial,2024.1.5,None,2024-10-08 21h42.20.407136 +0530,
10,0,10,0,18.892009700008202,,18.834430100003374,10,18.892009700008202,18.892009700008202,0.039621199990506284,20.557815699998173,[0.43425925925925923],[0.46944444444444444],[1],[0],[0],[1.684182500001043],[],,919050,001,2024-10-08_21h42.12.870,Visual Search Task_tutorial,2024.1.5,None,2024-10-08 21h42.20.407136 +0530,
11,0,11,0,20.617545800007065,,20.562517500002286,10,20.617545800007065,20.617545800007065,0.037920099988696165,22.507072499996866,[0.18981481481481483],[-0.1259259259259259],[1],[0],[0],[1.9069741999992402],['Target'],,919050,001,2024-10-08_21h42.12.870,Visual Search Task_tutorial,2024.1.5,None,2024-10-08 21h42.20.407136 +0530,
12,0,12,0,22.569509100008872,,22.51202490000287,10,22.569509100008872,22.569509100008872,0.038146999999298714,24.899627400009194,[-0.09166666666666666],[0.37777777777777777],[1],[0],[0],[2.349889000004623],['Target'],,919050,001,2024-10-08_21h42.12.870,Visual Search Task_tutorial,2024.1.5,None,2024-10-08 21h42.20.407136 +0530,
13,0,13,0,24.934302900001057,,24.904226200000267,,24.934302900001057,24.934302900001057,0.018866200000047684,26.160604300006526,[-0.2796296296296296],[0.3277777777777778],[1],[0],[0],[1.2377925000037067],['Target'],5,919050,001,2024-10-08_21h42.12.870,Visual Search Task_tutorial,2024.1.5,None,2024-10-08 21h42.20.407136 +0530,
14,0,14,0,26.222926400005235,,26.165372600007686,10,26.222926400005235,26.222926400005235,0.04044489999068901,27.94542669999646,[0.32685185185185184],[0.11203703703703703],[1],[0],[0],[1.7400974999909522],['Target'],,919050,001,2024-10-08_21h42.12.870,Visual Search Task_tutorial,2024.1.5,None,2024-10-08 21h42.20.407136 +0530,
15,0,15,0,27.98238549999951,,27.950436300001456,,27.98238549999951,27.98238549999951,0.019765400007599965,29.773669700007304,[-0.35185185185185186],[-0.016666666666666666],[1],[0],[0],[1.8038822000089567],['Target'],5,919050,001,2024-10-08_21h42.12.870,Visual Search Task_tutorial,2024.1.5,None,2024-10-08 21h42.20.407136 +0530,
16,0,16,0,29.809380400009104,,29.778124600008596,,29.809380400009104,29.809380400009104,0.01897859999735374,32.4871553999983,[0.44074074074074077],[0.1814814814814815],[1],[0],[0],[2.690395099998568],['Target'],5,919050,001,2024-10-08_21h42.12.870,Visual Search Task_tutorial,2024.1.5,None,2024-10-08 21h42.20.407136 +0530,
17,0,17,0,32.546846500001266,,32.49194239999633,10,32.546846500001266,32.546846500001266,0.03827110001293477,33.70327090000501,[0.44814814814814813],[0.06388888888888888],[1],[0],[0],[1.1733520999987377],['Target'],,919050,001,2024-10-08_21h42.12.870,Visual Search Task_tutorial,2024.1.5,None,2024-10-08 21h42.20.407136 +0530,
18,0,18,0,33.76232130000426,,33.70785310000065,10,33.76232130000426,33.76232130000426,0.03760850000253413,35.36283959999855,[0.008333333333333333],[-0.2962962962962963],[1],[0],[0],[1.6177236999938032],['Target'],,919050,001,2024-10-08_21h42.12.870,Visual Search Task_tutorial,2024.1.5,None,2024-10-08 21h42.20.407136 +0530,
19,0,19,0,35.425333899998805,,35.36734900000738,10,35.425333899998805,35.425333899998805,0.0389971999975387,37.359813300005044,[0.4],[0.22314814814814815],[1],[0],[0],[1.9538058000034653],['Target'],,919050,001,2024-10-08_21h42.12.870,Visual Search Task_tutorial,2024.1.5,None,2024-10-08 21h42.20.407136 +0530,
20,0,20,0,37.396993100002874,,37.364631300006295,,37.396993100002874,37.396993100002874,0.019710100008524023,39.381541599999764,[-0.017592592592592594],[0.18888888888888888],[1],[0],[0],[1.9976120000064839],['Target'],5,919050,001,2024-10-08_21h42.12.870,Visual Search Task_tutorial,2024.1.5,None,2024-10-08 21h42.20.407136 +0530,
21,0,21,0,39.42053730000043,,39.386153500003275,,39.42053730000043,39.42053730000043,0.022169399991980754,41.178958400007105,[-0.17685185185185184],[-0.4305555555555556],[1],[0],[0],[1.7710618999990402],['Target'],5,919050,001,2024-10-08_21h42.12.870,Visual Search Task_tutorial,2024.1.5,None,2024-10-08 21h42.20.407136 +0530,
22,0,22,0,41.21788419999939,,41.18375840000226,,41.21788419999939,41.21788419999939,0.021190600004047155,42.377923699998064,[-0.13518518518518519],[-0.2111111111111111],[1],[0],[0],[1.1733712999994168],[],5,919050,001,2024-10-08_21h42.12.870,Visual Search Task_tutorial,2024.1.5,None,2024-10-08 21h42.20.407136 +0530,
23,0,23,0,42.43796740000835,,42.38246340000478,10,42.43796740000835,42.43796740000835,0.03784319999977015,44.331343099998776,[0.29074074074074074],[-0.45],[1],[0],[0],[1.9110908000002382],['Target'],,919050,001,2024-10-08_21h42.12.870,Visual Search Task_tutorial,2024.1.5,None,2024-10-08 21h42.20.407136 +0530,
24,0,24,0,44.37059620000946,,44.33611099999689,,44.37059620000946,44.37059620000946,0.022410499994293787,45.95806669999729,[-0.11944444444444445],[-0.32222222222222224],[1],[0],[0],[1.599922699999297],[],5,919050,001,2024-10-08_21h42.12.870,Visual Search Task_tutorial,2024.1.5,None,2024-10-08 21h42.20.407136 +0530,
25,0,25,0,45.994707999998354,,45.96260880000773,,45.994707999998354,45.994707999998354,0.019444299992755987,47.356572100004996,[-0.30092592592592593],[-0.14351851851851852],[1],[0],[0],[1.3749490000045625],['Target'],5,919050,001,2024-10-08_21h42.12.870,Visual Search Task_tutorial,2024.1.5,None,2024-10-08 21h42.20.407136 +0530,
26,0,26,0,47.39459579999675,,47.361593100009486,,47.39459579999675,47.39459579999675,0.020911499988869764,49.13846290000947,[0.4675925925925926],[-0.07222222222222222],[1],[0],[0],[1.7563857000059215],['Target'],5,919050,001,2024-10-08_21h42.12.870,Visual Search Task_tutorial,2024.1.5,None,2024-10-08 21h42.20.407136 +0530,
27,0,27,0,49.17606450000312,,49.14321540000674,,49.17606450000312,49.17606450000312,0.020972000012989156,51.23728570000094,[-0.35185185185185186],[0.32407407407407407],[1],[0],[0],[2.0734693000122206],['Target'],5,919050,001,2024-10-08_21h42.12.870,Visual Search Task_tutorial,2024.1.5,None,2024-10-08 21h42.20.407136 +0530,
28,0,28,0,51.274999600005685,,51.24198230000911,,51.274999600005685,51.274999600005685,0.020494799988227896,52.81826359999832,[-0.09351851851851851],[0.14351851851851852],[1],[0],[0],[1.5562730000092415],['Target'],5,919050,001,2024-10-08_21h42.12.870,Visual Search Task_tutorial,2024.1.5,None,2024-10-08 21h42.20.407136 +0530,
29,0,29,0,52.880441000001156,,52.82297930000641,10,52.880441000001156,52.880441000001156,0.03808069998922292,54.7842576999974,[-0.10277777777777777],[-0.18333333333333332],[1],[0],[0],[1.923492800007807],['Target'],,919050,001,2024-10-08_21h42.12.870,Visual Search Task_tutorial,2024.1.5,None,2024-10-08 21h42.20.407136 +0530,
30,0,30,0,54.820148900005734,,54.78880160000699,,54.820148900005734,54.820148900005734,0.01944660001026932,56.533125000001746,[-0.09722222222222222],[0.29444444444444445],[1],[0],[0],[1.7252241000096546],['Target'],5,919050,001,2024-10-08_21h42.12.870,Visual Search Task_tutorial,2024.1.5,None,2024-10-08 21h42.20.407136 +0530,
31,0,31,0,56.67394370000693,,56.53798619999725,10,56.67394370000693,56.67394370000693,0.11687529999471735,58.25298509999993,[0.2574074074074074],[0.1425925925925926],[1],[0],[0],[1.5984065999946324],['Target'],,919050,001,2024-10-08_21h42.12.870,Visual Search Task_tutorial,2024.1.5,None,2024-10-08 21h42.20.407136 +0530,
32,0,32,0,58.31420609999623,,58.25804539999808,10,58.31420609999623,58.31420609999623,0.03903889999492094,59.875302100001136,[-0.3787037037037037],[-0.03333333333333333],[1],[0],[0],[1.5785576999915065],['Target'],,919050,001,2024-10-08_21h42.12.870,Visual Search Task_tutorial,2024.1.5,None,2024-10-08 21h42.20.407136 +0530,
33,0,33,0,59.91390769999998,,59.880605500002275,,59.91390769999998,59.91390769999998,0.020764800006872974,61.51143060000322,[0.29074074074074074],[0.05740740740740741],[1],[0],[0],[1.610427300009178],['Target'],5,919050,001,2024-10-08_21h42.12.870,Visual Search Task_tutorial,2024.1.5,None,2024-10-08 21h42.20.407136 +0530,
34,0,34,0,61.548482300000614,,61.51656709999952,,61.548482300000614,61.548482300000614,0.020193899996229447,63.26563239999814,[-0.1935185185185185],[-0.11851851851851852],[1],[0],[0],[1.7289939999900525],['Target'],5,919050,001,2024-10-08_21h42.12.870,Visual Search Task_tutorial,2024.1.5,None,2024-10-08 21h42.20.407136 +0530,
35,0,35,0,63.352332100010244,,63.27288099999714,10,63.352332100010244,63.352332100010244,0.06377639999845996,65.10270479999599,[-0.412962962962963],[0.2111111111111111],[1],[0],[0],[1.7668564000050537],['Target'],,919050,001,2024-10-08_21h42.12.870,Visual Search Task_tutorial,2024.1.5,None,2024-10-08 21h42.20.407136 +0530,
36,0,36,0,65.16480199999933,,65.10721680001006,10,65.16480199999933,65.16480199999933,0.038585199989029206,67.2085431000014,[-0.1],[-0.48518518518518516],[1],[0],[0],[2.0630494999932125],['Target'],,919050,001,2024-10-08_21h42.12.870,Visual Search Task_tutorial,2024.1.5,None,2024-10-08 21h42.20.407136 +0530,
37,0,37,0,67.27680160000455,,67.21373410000524,10,67.27680160000455,67.27680160000455,0.04601540000294335,69.04988740000408,[0.046296296296296294],[0.24166666666666667],[1],[0],[0],[1.7904673999873921],['Target'],,919050,001,2024-10-08_21h42.12.870,Visual Search Task_tutorial,2024.1.5,None,2024-10-08 21h42.20.407136 +0530,
38,0,38,0,69.11511600000085,,69.05461269999796,10,69.11511600000085,69.11511600000085,0.04348300000128802,71.25014070000907,[0.12037037037037036],[-0.33611111111111114],[1],[0],[0],[2.152275799991912],['Target'],,919050,001,2024-10-08_21h42.12.870,Visual Search Task_tutorial,2024.1.5,None,2024-10-08 21h42.20.407136 +0530,
39,0,39,0,71.31296579999616,,71.25503929999832,10,71.31296579999616,71.31296579999616,0.040868600000976585,73.31978770000569,[-0.31666666666666665],[0.12314814814814815],[1],[0],[0],[2.0242501000029733],['Target'],,919050,001,2024-10-08_21h42.12.870,Visual Search Task_tutorial,2024.1.5,None,2024-10-08 21h42.20.407136 +0530,
40,0,40,0,73.35701960000733,,73.32443609999609,,73.35701960000733,73.35701960000733,0.019449799990979955,75.84805980000237,[0.3277777777777778],[-0.17592592592592593],[1],[0],[0],[2.504602300003171],['Target'],5,919050,001,2024-10-08_21h42.12.870,Visual Search Task_tutorial,2024.1.5,None,2024-10-08 21h42.20.407136 +0530,
41,0,41,0,75.90762070000346,,75.85313150000002,10,75.90762070000346,75.90762070000346,0.037996600003680214,77.3434522000025,[0.17962962962962964],[0.23333333333333334],[1],[0],[0],[1.4527138999983435],['Target'],,919050,001,2024-10-08_21h42.12.870,Visual Search Task_tutorial,2024.1.5,None,2024-10-08 21h42.20.407136 +0530,
42,0,42,0,77.3817687999981,,77.34811880000052,,77.3817687999981,77.3817687999981,0.0200089999998454,79.0293445999996,[-0.3111111111111111],[-0.19537037037037036],[1],[0],[0],[1.6615231999894604],['Target'],5,919050,001,2024-10-08_21h42.12.870,Visual Search Task_tutorial,2024.1.5,None,2024-10-08 21h42.20.407136 +0530,
43,0,43,0,79.09309989999747,,79.03399690000515,10,79.09309989999747,79.09309989999747,0.038122600002679974,80.85051220000605,[0.25462962962962965],[0.08796296296296297],[1],[0],[0],[1.7787651999969967],['Target'],,919050,001,2024-10-08_21h42.12.870,Visual Search Task_tutorial,2024.1.5,None,2024-10-08 21h42.20.407136 +0530,
44,0,44,0,80.91078430000925,,80.85538059999817,10,80.91078430000925,80.91078430000925,0.038572999997995794,82.56372700000065,[-0.29814814814814816],[0.07222222222222222],[1],[0],[0],[1.6700271000008797],['Target'],,919050,001,2024-10-08_21h42.12.870,Visual Search Task_tutorial,2024.1.5,None,2024-10-08 21h42.20.407136 +0530,
45,0,45,0,82.62618819999625,,82.56854120000207,10,82.62618819999625,82.62618819999625,0.039898699993500486,84.73760480000055,[-0.18425925925925926],[0.4740740740740741],[1],[0],[0],[2.129474699991988],['Target'],,919050,001,2024-10-08_21h42.12.870,Visual Search Task_tutorial,2024.1.5,None,2024-10-08 21h42.20.407136 +0530,
46,0,46,0,84.79893469999661,,84.74231169999985,10,84.79893469999661,84.79893469999661,0.03888770000776276,86.24938439999823,[-0.14907407407407408],[0.06018518518518518],[1],[0],[0],[1.4685836999997264],['Target'],,919050,001,2024-10-08_21h42.12.870,Visual Search Task_tutorial,2024.1.5,None,2024-10-08 21h42.20.407136 +0530,
47,0,47,0,86.2853688000032,,86.25402170000598,,86.2853688000032,86.2853688000032,0.019525900002918206,87.92204340000171,[0.3148148148148148],[0.38796296296296295],[1],[0],[0],[1.6486879000003682],['Target'],5,919050,001,2024-10-08_21h42.12.870,Visual Search Task_tutorial,2024.1.5,None,2024-10-08 21h42.20.407136 +0530,
48,0,48,0,87.95896660001017,,87.92680610000389,,87.95896660001017,87.95896660001017,0.019951700000092387,88.86965880000207,[0.2935185185185185],[0.37962962962962965],[1],[0],[0],[0.9232870999985607],['Target'],5,919050,001,2024-10-08_21h42.12.870,Visual Search Task_tutorial,2024.1.5,None,2024-10-08 21h42.20.407136 +0530,
49,0,49,0,88.92933840000478,,88.87429220000922,10,88.92933840000478,88.92933840000478,0.038319400002365,91.49723020000965,[-0.062037037037037036],[-0.4861111111111111],[1],[0],[0],[2.5850474999897415],['Target'],,919050,001,2024-10-08_21h42.12.870,Visual Search Task_tutorial,2024.1.5,None,2024-10-08 21h42.20.407136 +0530,
50,0,50,0,91.55955200000608,,91.50199279999651,10,91.55955200000608,91.55955200000608,0.04051340000296477,92.92096790000505,[0.2962962962962963],[-0.262037037037037],[1],[0],[0],[1.3788335999997798],['Target'],,919050,001,2024-10-08_21h42.12.870,Visual Search Task_tutorial,2024.1.5,None,2024-10-08 21h42.20.407136 +0530,
51,0,51,0,92.95520640000177,,92.92558039999858,,92.95520640000177,92.95520640000177,0.01843189999635797,94.84691360000579,[-0.1638888888888889],[-0.026851851851851852],[1],[0],[0],[1.9033343000046443],['Target'],5,919050,001,2024-10-08_21h42.12.870,Visual Search Task_tutorial,2024.1.5,None,2024-10-08 21h42.20.407136 +0530,
52,0,52,0,94.9096084000048,,94.8517581000051,10,94.9096084000048,94.9096084000048,0.03996740000729915,96.30476749999798,[0.26851851851851855],[0.3814814814814815],[1],[0],[0],[1.4132709999976214],[],,919050,001,2024-10-08_21h42.12.870,Visual Search Task_tutorial,2024.1.5,None,2024-10-08 21h42.20.407136 +0530,
53,0,53,0,96.36546509999607,,96.30944090000412,10,96.36546509999607,96.36546509999607,0.0384526999987429,97.87253849999979,[-0.18611111111111112],[0.1],[1],[0],[0],[1.525081300002057],['Target'],,919050,001,2024-10-08_21h42.12.870,Visual Search Task_tutorial,2024.1.5,None,2024-10-08 21h42.20.407136 +0530,
54,0,54,0,97.93635640000866,,97.87758759999997,10,97.93635640000866,97.93635640000866,0.03988440000102855,99.2547876000026,[0.3277777777777778],[0.362962962962963],[1],[0],[0],[1.3377353999967454],['Target'],,919050,001,2024-10-08_21h42.12.870,Visual Search Task_tutorial,2024.1.5,None,2024-10-08 21h42.20.407136 +0530,
55,0,55,0,99.29160160000902,,99.2595694000047,,99.29160160000902,99.29160160000902,0.01990890000888612,100.99240679999639,[-0.18425925925925926],[-0.10925925925925926],[1],[0],[0],[1.7132364999997662],['Target'],5,919050,001,2024-10-08_21h42.12.870,Visual Search Task_tutorial,2024.1.5,None,2024-10-08 21h42.20.407136 +0530,
56,0,56,0,101.0290679000027,,100.99709830000938,,101.0290679000027,101.0290679000027,0.019982599987997673,102.98955320000823,[-0.08055555555555556],[0.44722222222222224],[1],[0],[0],[1.9726764999941224],['Target'],5,919050,001,2024-10-08_21h42.12.870,Visual Search Task_tutorial,2024.1.5,None,2024-10-08 21h42.20.407136 +0530,
57,0,57,0,103.02679180000268,,102.99516730000323,,103.02679180000268,103.02679180000268,0.0190195000031963,104.27247880000505,[0.34074074074074073],[0.32222222222222224],[1],[0],[0],[1.2586441000021296],['Target'],5,919050,001,2024-10-08_21h42.12.870,Visual Search Task_tutorial,2024.1.5,None,2024-10-08 21h42.20.407136 +0530,
58,0,58,0,104.30880040000193,,104.27715470000112,,104.30880040000193,104.30880040000193,0.018697299994528294,105.37088290000975,[0.1638888888888889],[0.1935185185185185],[1],[0],[0],[1.0754114000010304],['Target'],5,919050,001,2024-10-08_21h42.12.870,Visual Search Task_tutorial,2024.1.5,None,2024-10-08 21h42.20.407136 +0530,
59,0,59,0,105.41004600000451,,105.37589630000002,,105.41004600000451,105.41004600000451,0.02117379999253899,106.96896880000713,[0.4287037037037037],[-0.21574074074074073],[1],[0],[0],[1.5723116000008304],['Target'],5,919050,001,2024-10-08_21h42.12.870,Visual Search Task_tutorial,2024.1.5,None,2024-10-08 21h42.20.407136 +0530,
60,0,60,0,107.03216650000832,,106.97376020000956,10,107.03216650000832,107.03216650000832,0.039803500010748394,108.8099160999991,[-0.049074074074074076],[-0.1638888888888889],[1],[0],[0],[1.7967338000016753],['Target'],,919050,001,2024-10-08_21h42.12.870,Visual Search Task_tutorial,2024.1.5,None,2024-10-08 21h42.20.407136 +0530,
61,0,61,0,108.85002019999956,,108.81488050000917,,108.85002019999956,108.85002019999956,0.021747499995399266,110.96693850000156,[-0.4324074074074074],[0.2759259259259259],[1],[0],[0],[2.1305436000111513],['Target'],5,919050,001,2024-10-08_21h42.12.870,Visual Search Task_tutorial,2024.1.5,None,2024-10-08 21h42.20.407136 +0530,
62,0,62,0,111.00312350000604,,110.97166720000678,,111.00312350000604,111.00312350000604,0.01951769999868702,112.5486904999998,[-0.24351851851851852],[-0.04537037037037037],[1],[0],[0],[1.5578324000089196],['Target'],5,919050,001,2024-10-08_21h42.12.870,Visual Search Task_tutorial,2024.1.5,None,2024-10-08 21h42.20.407136 +0530,
63,0,63,0,112.58506019999913,,112.55349849999766,,112.58506019999913,112.58506019999913,0.018837600000551902,114.37991699999839,[0.15648148148148147],[-0.37962962962962965],[1],[0],[0],[1.8079435999970883],['Target'],5,919050,001,2024-10-08_21h42.12.870,Visual Search Task_tutorial,2024.1.5,None,2024-10-08 21h42.20.407136 +0530,
64,0,64,0,114.4182870000077,,114.38498020000407,,114.4182870000077,114.4182870000077,0.02090759998827707,115.87823950000165,[0.45925925925925926],[-0.39537037037037037],[1],[0],[0],[1.4727940000011586],[],5,919050,001,2024-10-08_21h42.12.870,Visual Search Task_tutorial,2024.1.5,None,2024-10-08 21h42.20.407136 +0530,
65,0,65,0,115.91829139999754,,115.88300660000823,,115.91829139999754,115.91829139999754,0.022167600007378496,118.4748671999987,[-0.48703703703703705],[-0.4],[1],[0],[0],[2.57013310000184],['Target'],5,919050,001,2024-10-08_21h42.12.870,Visual Search Task_tutorial,2024.1.5,None,2024-10-08 21h42.20.407136 +0530,
66,0,66,0,118.52050660000532,,118.47945890000847,,118.52050660000532,118.52050660000532,0.025959400009014644,120.27394440000353,[0.08611111111111111],[-0.046296296296296294],[1],[0],[0],[1.7689135999971768],['Target'],5,919050,001,2024-10-08_21h42.12.870,Visual Search Task_tutorial,2024.1.5,None,2024-10-08 21h42.20.407136 +0530,
67,0,67,0,120.31193160000839,,120.27861860000121,,120.31193160000839,120.31193160000839,0.02133190000313334,122.37246610000147,[0.3861111111111111],[0.3037037037037037],[1],[0],[0],[2.072846800001571],['Target'],5,919050,001,2024-10-08_21h42.12.870,Visual Search Task_tutorial,2024.1.5,None,2024-10-08 21h42.20.407136 +0530,
68,0,68,0,122.43015949999972,,122.37729390000459,10,122.43015949999972,122.43015949999972,0.03687310000532307,124.5755477000057,[-0.487962962962963],[-0.003703703703703704],[1],[0],[0],[2.161816399995587],['Target'],,919050,001,2024-10-08_21h42.12.870,Visual Search Task_tutorial,2024.1.5,None,2024-10-08 21h42.20.407136 +0530,
69,0,69,0,124.636820300002,,124.58021820000431,10,124.636820300002,124.636820300002,0.03900059999432415,125.67163670000446,[-0.47314814814814815],[0.040740740740740744],[1],[0],[0],[1.0527559999900404],['Target'],,919050,001,2024-10-08_21h42.12.870,Visual Search Task_tutorial,2024.1.5,None,2024-10-08 21h42.20.407136 +0530,
70,0,70,0,125.731102500009,,125.67613420000998,10,125.731102500009,125.731102500009,0.03587880000122823,127.51083949999884,[-0.25092592592592594],[0.14351851851851852],[1],[0],[0],[1.7992402000090806],[],,919050,001,2024-10-08_21h42.12.870,Visual Search Task_tutorial,2024.1.5,None,2024-10-08 21h42.20.407136 +0530,
71,0,71,0,127.57043340000382,,127.51583329999994,10,127.57043340000382,127.57043340000382,0.037984700000379235,129.4101621000009,[0.4324074074074074],[-0.10648148148148148],[1],[0],[0],[1.8567911999998614],['Target'],,919050,001,2024-10-08_21h42.12.870,Visual Search Task_tutorial,2024.1.5,None,2024-10-08 21h42.20.407136 +0530,
72,0,72,0,129.447720199998,,129.41502490000858,,129.447720199998,129.447720199998,0.020990399993024766,130.96552800000063,[-0.29074074074074074],[-0.1685185185185185],[1],[0],[0],[1.5297941000026185],['Target'],5,919050,001,2024-10-08_21h42.12.870,Visual Search Task_tutorial,2024.1.5,None,2024-10-08 21h42.20.407136 +0530,
73,0,73,0,131.0334021000017,,130.97029690000636,10,131.0334021000017,131.0334021000017,0.04496830000425689,132.33933020000404,[0.23055555555555557],[-0.31574074074074077],[1],[0],[0],[1.3244370000029448],['Target'],,919050,001,2024-10-08_21h42.12.870,Visual Search Task_tutorial,2024.1.5,None,2024-10-08 21h42.20.407136 +0530,
74,0,74,0,132.37835440000345,,132.34406650000892,,132.37835440000345,132.37835440000345,0.020269899992854334,133.36338530000648,[0.27037037037037037],[-0.2564814814814815],[1],[0],[0],[0.9993740000063553],['Target'],5,919050,001,2024-10-08_21h42.12.870,Visual Search Task_tutorial,2024.1.5,None,2024-10-08 21h42.20.407136 +0530,
75,0,75,0,133.44162399999914,,133.36797469999874,10,133.44162399999914,133.44162399999914,0.04692110000178218,134.6355506999971,[0.22777777777777777],[-0.1537037037037037],[1],[0],[0],[1.2209098000021186],['Target'],,919050,001,2024-10-08_21h42.12.870,Visual Search Task_tutorial,2024.1.5,None,2024-10-08 21h42.20.407136 +0530,
76,0,76,0,134.6733424999984,,134.64028600000893,,134.6733424999984,134.6733424999984,0.020699600005173124,136.65933470000164,[-0.32222222222222224],[0.27685185185185185],[1],[0],[0],[1.9987406000000192],['Target'],5,919050,001,2024-10-08_21h42.12.870,Visual Search Task_tutorial,2024.1.5,None,2024-10-08 21h42.20.407136 +0530,
77,0,77,0,136.69728629999736,,136.6641174999968,,136.69728629999736,136.69728629999736,0.021395399991888553,137.94124070000544,[-0.2851851851851852],[-0.009259259259259259],[1],[0],[0],[1.2561687999987043],['Target'],5,919050,001,2024-10-08_21h42.12.870,Visual Search Task_tutorial,2024.1.5,None,2024-10-08 21h42.20.407136 +0530,
78,0,78,0,137.97775560000446,,137.9460642000049,,137.97775560000446,137.97775560000446,0.019182200005161576,140.3060353000037,[0.25092592592592594],[-0.2564814814814815],[1],[0],[0],[2.3411838000029093],['Target'],5,919050,001,2024-10-08_21h42.12.870,Visual Search Task_tutorial,2024.1.5,None,2024-10-08 21h42.20.407136 +0530,
79,0,79,0,140.3628052999993,,140.31054340000264,10,140.3628052999993,140.3628052999993,0.03573360000154935,142.22755280000274,[-0.41388888888888886],[-0.4462962962962963],[1],[0],[0],[1.8816499000095064],[],,919050,001,2024-10-08_21h42.12.870,Visual Search Task_tutorial,2024.1.5,None,2024-10-08 21h42.20.407136 +0530,
80,0,80,0,142.26357260000077,,142.23235780000687,,142.26357260000077,142.26357260000077,0.020274700000300072,144.6521630000061,[0.3574074074074074],[0.4425925925925926],[1],[0],[0],[2.400035400001798],['Target'],5,919050,001,2024-10-08_21h42.12.870,Visual Search Task_tutorial,2024.1.5,None,2024-10-08 21h42.20.407136 +0530,
81,0,81,0,144.68843989999732,,144.65667009999743,,144.68843989999732,144.68843989999732,0.019717000002856366,145.90080420000595,[0.2898148148148148],[0.22685185185185186],[1],[0],[0],[1.2247611000057077],['Target'],5,919050,001,2024-10-08_21h42.12.870,Visual Search Task_tutorial,2024.1.5,None,2024-10-08 21h42.20.407136 +0530,
82,0,82,0,145.95689620000485,,145.90532459999667,10,145.95689620000485,145.95689620000485,0.035262300007161684,147.29381899999862,[0.3351851851851852],[0.41574074074074074],[1],[0],[0],[1.3532036999968113],[],,919050,001,2024-10-08_21h42.12.870,Visual Search Task_tutorial,2024.1.5,None,2024-10-08 21h42.20.407136 +0530,
83,0,83,0,147.33214820000285,,147.29912680000416,,147.33214820000285,147.33214820000285,0.021715700000640936,148.5819657999964,[0.4759259259259259],[0.4824074074074074],[1],[0],[0],[1.2618851000006543],['Target'],5,919050,001,2024-10-08_21h42.12.870,Visual Search Task_tutorial,2024.1.5,None,2024-10-08 21h42.20.407136 +0530,
84,0,84,0,148.61960150000232,,148.58659340000304,,148.61960150000232,148.61960150000232,0.020690699995611794,149.76524849999987,[0.19074074074074074],[0.26851851851851855],[1],[0],[0],[1.158432800002629],['Target'],5,919050,001,2024-10-08_21h42.12.870,Visual Search Task_tutorial,2024.1.5,None,2024-10-08 21h42.20.407136 +0530,
85,0,85,0,149.80424680000579,,149.76972500000556,,149.80424680000579,149.80424680000579,0.022182200002134778,151.04628409999714,[-0.03148148148148148],[0.025],[1],[0],[0],[1.2547284000029322],['Target'],5,919050,001,2024-10-08_21h42.12.870,Visual Search Task_tutorial,2024.1.5,None,2024-10-08 21h42.20.407136 +0530,
86,0,86,0,151.0848388000013,,151.05100819999643,,151.0848388000013,151.0848388000013,0.020818500008317642,152.545283200001,[0.39166666666666666],[-0.075],[1],[0],[0],[1.4738994000072125],['Target'],5,919050,001,2024-10-08_21h42.12.870,Visual Search Task_tutorial,2024.1.5,None,2024-10-08 21h42.20.407136 +0530,
87,0,87,0,152.60541340000054,,152.54983489999722,10,152.60541340000054,152.60541340000054,0.03861029999097809,154.59394980000798,[0.27037037037037037],[0.34444444444444444],[1],[0],[0],[2.0059135999908904],['Target'],,919050,001,2024-10-08_21h42.12.870,Visual Search Task_tutorial,2024.1.5,None,2024-10-08 21h42.20.407136 +0530,
88,0,88,0,154.6556719000073,,154.5989350000018,10,154.6556719000073,154.6556719000073,0.03949500000453554,156.47126459999708,[-0.3685185185185185],[-0.2833333333333333],[1],[0],[0],[1.8332047000003513],['Target'],,919050,001,2024-10-08_21h42.12.870,Visual Search Task_tutorial,2024.1.5,None,2024-10-08 21h42.20.407136 +0530,
89,0,89,0,156.52985940000508,,156.47580440000456,10,156.52985940000508,156.52985940000508,0.03787809998902958,157.68046170000162,[-0.32407407407407407],[-0.2537037037037037],[1],[0],[0],[1.1671786999941105],['Target'],,919050,001,2024-10-08_21h42.12.870,Visual Search Task_tutorial,2024.1.5,None,2024-10-08 21h42.20.407136 +0530,
90,0,90,0,157.740498500003,,157.68541550000373,10,157.740498500003,157.740498500003,0.03869200000190176,159.897907999999,[0.4601851851851852],[0.43703703703703706],[1],[0],[0],[2.17428170000494],['Target'],,919050,001,2024-10-08_21h42.12.870,Visual Search Task_tutorial,2024.1.5,None,2024-10-08 21h42.20.407136 +0530,
91,0,91,0,159.95690520000062,,159.9027511000022,10,159.95690520000062,159.95690520000062,0.03765939999721013,161.69016030000057,[-0.11851851851851852],[-0.008333333333333333],[1],[0],[0],[1.7501312999957008],['Target'],,919050,001,2024-10-08_21h42.12.870,Visual Search Task_tutorial,2024.1.5,None,2024-10-08 21h42.20.407136 +0530,
92,0,92,0,161.74959639999724,,161.69469790000585,10,161.74959639999724,161.74959639999724,0.03806649999751244,162.96346910001012,[0.10555555555555556],[0.08611111111111111],[1],[0],[0],[1.2310597999894526],['Target'],,919050,001,2024-10-08_21h42.12.870,Visual Search Task_tutorial,2024.1.5,None,2024-10-08 21h42.20.407136 +0530,
93,0,93,0,163.0239206999977,,162.96828800000367,10,163.0239206999977,163.0239206999977,0.0383224999968661,164.3835376000061,[-0.21296296296296297],[-0.13703703703703704],[1],[0],[0],[1.3773489000013797],['Target'],,919050,001,2024-10-08_21h42.12.870,Visual Search Task_tutorial,2024.1.5,None,2024-10-08 21h42.20.407136 +0530,
94,0,94,0,164.42119639999873,,164.3882059000025,,164.42119639999873,164.42119639999873,0.02055119999567978,166.23244360000535,[-0.12685185185185185],[-0.05],[1],[0],[0],[1.8241071999946143],['Target'],5,919050,001,2024-10-08_21h42.12.870,Visual Search Task_tutorial,2024.1.5,None,2024-10-08 21h42.20.407136 +0530,
95,0,95,0,166.29108070000075,,166.23718650000228,10,166.29108070000075,166.29108070000075,0.0374943000060739,167.90059109999856,[0.28703703703703703],[0.03425925925925926],[1],[0],[0],[1.6262624000082724],['Target'],,919050,001,2024-10-08_21h42.12.870,Visual Search Task_tutorial,2024.1.5,None,2024-10-08 21h42.20.407136 +0530,
96,0,96,0,167.97054480000224,,167.9053203000076,10,167.97054480000224,167.97054480000224,0.041925900004571304,169.41296570000122,[0.2935185185185185],[-0.225],[1],[0],[0],[1.4661211999919033],['Target'],,919050,001,2024-10-08_21h42.12.870,Visual Search Task_tutorial,2024.1.5,None,2024-10-08 21h42.20.407136 +0530,
97,0,97,0,169.4548502999969,,169.41785640000307,,169.4548502999969,169.4548502999969,0.021562199995969422,171.17853869999817,[-0.3296296296296296],[0.2],[1],[0],[0],[1.7395145000045886],['Target'],5,919050,001,2024-10-08_21h42.12.870,Visual Search Task_tutorial,2024.1.5,None,2024-10-08 21h42.20.407136 +0530,
98,0,98,0,171.2398039999971,,171.18313780000608,10,171.2398039999971,171.2398039999971,0.038565299997571856,173.20104359999823,[0.2],[-0.1259259259259259],[1],[0],[0],[1.9796318000007886],['Target'],,919050,001,2024-10-08_21h42.12.870,Visual Search Task_tutorial,2024.1.5,None,2024-10-08 21h42.20.407136 +0530,
99,0,99,0,173.2639485999971,,173.20608170000196,10,173.2639485999971,173.2639485999971,0.040127700005541556,175.22642750000523,[-0.4638888888888889],[0.3472222222222222],[1],[0],[0],[1.9806081000133418],['Target'],,919050,001,2024-10-08_21h42.12.870,Visual Search Task_tutorial,2024.1.5,None,2024-10-08 21h42.20.407136 +0530,
100,0,100,0,175.26327260000107,,175.2311747000058,,175.26327260000107,175.26327260000107,0.019930800001020543,176.65675930000725,[-0.3962962962962963],[0.16018518518518518],[1],[0],[0],[1.4060672000050545],['Target'],5,919050,001,2024-10-08_21h42.12.870,Visual Search Task_tutorial,2024.1.5,None,2024-10-08 21h42.20.407136 +0530,
101,0,101,0,176.7189708000078,,176.66149300000689,10,176.7189708000078,176.7189708000078,0.03960299999744166,178.03986180000356,[-0.4462962962962963],[-0.25277777777777777],[1],[0],[0],[1.3391737999918405],['Target'],,919050,001,2024-10-08_21h42.12.870,Visual Search Task_tutorial,2024.1.5,None,2024-10-08 21h42.20.407136 +0530,
102,0,102,0,178.0979282000044,,178.04464480000024,10,178.0979282000044,178.0979282000044,0.03683850000379607,179.243905299998,[-0.4222222222222222],[-0.2611111111111111],[1],[0],[0],[1.1628287000057753],['Target'],,919050,001,2024-10-08_21h42.12.870,Visual Search Task_tutorial,2024.1.5,None,2024-10-08 21h42.20.407136 +0530,
103,0,103,0,179.30736900000193,,179.2487378000078,10,179.30736900000193,179.30736900000193,0.041279600001871586,180.35418890000437,[-0.4222222222222222],[-0.425],[1],[0],[0],[1.06450429999677],['Target'],,919050,001,2024-10-08_21h42.12.870,Visual Search Task_tutorial,2024.1.5,None,2024-10-08 21h42.20.407136 +0530,
104,0,104,0,180.39064420000068,,180.35896050000156,,180.39064420000068,180.39064420000068,0.01864590001059696,181.70272739999928,[-0.025],[-0.1814814814814815],[1],[0],[0],[1.3252702000027057],['Target'],5,919050,001,2024-10-08_21h42.12.870,Visual Search Task_tutorial,2024.1.5,None,2024-10-08 21h42.20.407136 +0530,
105,0,105,0,181.74465619999683,,181.70772120000038,,181.74465619999683,181.74465619999683,0.023211100007756613,183.2162815000047,[-0.3888888888888889],[-0.3388888888888889],[1],[0],[0],[1.4857666000025347],['Target'],5,919050,001,2024-10-08_21h42.12.870,Visual Search Task_tutorial,2024.1.5,None,2024-10-08 21h42.20.407136 +0530,
106,0,106,0,183.25376420000975,,183.22125360000064,,183.25376420000975,183.25376420000975,0.02014180000696797,185.11595079999825,[0.4287037037037037],[-0.36018518518518516],[1],[0],[0],[1.875017200000002],[],5,919050,001,2024-10-08_21h42.12.870,Visual Search Task_tutorial,2024.1.5,None,2024-10-08 21h42.20.407136 +0530,
107,0,107,0,185.17681220000668,,185.12109800000326,10,185.17681220000668,185.17681220000668,0.03912139999738429,186.18680799999856,[0.4185185185185185],[-0.3055555555555556],[1],[0],[0],[1.026919000010821],['Target'],,919050,001,2024-10-08_21h42.12.870,Visual Search Task_tutorial,2024.1.5,None,2024-10-08 21h42.20.407136 +0530,
108,0,108,0,186.24790660000872,,186.19147960000555,10,186.24790660000872,186.24790660000872,0.03919409999798518,187.91920469999604,[0.05],[-0.2611111111111111],[1],[0],[0],[1.6889195000112522],['Target'],,919050,001,2024-10-08_21h42.12.870,Visual Search Task_tutorial,2024.1.5,None,2024-10-08 21h42.20.407136 +0530,
109,0,109,0,187.95541989999765,,187.92411990000983,,187.95541989999765,187.95541989999765,0.020217100012814626,189.42814479999652,[-0.24537037037037038],[-0.2935185185185185],[1],[0],[0],[1.4842139999964274],['Target'],5,919050,001,2024-10-08_21h42.12.870,Visual Search Task_tutorial,2024.1.5,None,2024-10-08 21h42.20.407136 +0530,
110,0,110,0,189.46622610000486,,189.43287980000605,,189.46622610000486,189.46622610000486,0.021060500002931803,191.15967400000955,[-0.225],[0.044444444444444446],[1],[0],[0],[1.7061034999933327],['Target'],5,919050,001,2024-10-08_21h42.12.870,Visual Search Task_tutorial,2024.1.5,None,2024-10-08 21h42.20.407136 +0530,
111,0,111,0,191.1949969999987,,191.16419799999858,,191.1949969999987,191.1949969999987,0.018870100000640377,193.00819970000884,[-0.025],[0.3148148148148148],[1],[0],[0],[1.8255428000120446],['Target'],5,919050,001,2024-10-08_21h42.12.870,Visual Search Task_tutorial,2024.1.5,None,2024-10-08 21h42.20.407136 +0530,
112,0,112,0,193.07253430000856,,193.01284080000187,10,193.07253430000856,193.07253430000856,0.038850700002512895,194.52282480000576,[-0.3731481481481482],[0.08055555555555556],[1],[0],[0],[1.471441000001505],['Target'],,919050,001,2024-10-08_21h42.12.870,Visual Search Task_tutorial,2024.1.5,None,2024-10-08 21h42.20.407136 +0530,
113,0,113,0,194.59544129999995,,194.52821469999617,10,194.59544129999995,194.59544129999995,0.04774080000061076,197.55350100000214,[-0.14074074074074075],[-0.2111111111111111],[1],[0],[0],[2.977919600001769],[],,919050,001,2024-10-08_21h42.12.870,Visual Search Task_tutorial,2024.1.5,None,2024-10-08 21h42.20.407136 +0530,
114,0,114,0,197.59011859999737,,197.5586833999987,,197.59011859999737,197.59011859999737,0.019818400003714487,198.83759660000214,[0.27314814814814814],[-0.13240740740740742],[1],[0],[0],[1.2595700999954715],[],5,919050,001,2024-10-08_21h42.12.870,Visual Search Task_tutorial,2024.1.5,None,2024-10-08 21h42.20.407136 +0530,
115,0,115,0,198.8763498000044,,198.8422472000093,,198.8763498000044,198.8763498000044,0.020115700011956505,200.2356293000048,[-0.19907407407407407],[0.225],[1],[0],[0],[1.3736192999931518],['Target'],5,919050,001,2024-10-08_21h42.12.870,Visual Search Task_tutorial,2024.1.5,None,2024-10-08 21h42.20.407136 +0530,
116,0,116,0,200.2731261000008,,200.24035130000266,,200.2731261000008,200.2731261000008,0.019780899994657375,202.43272779999825,[-0.29814814814814816],[-0.49907407407407406],[1],[0],[0],[2.1728923999908147],['Target'],5,919050,001,2024-10-08_21h42.12.870,Visual Search Task_tutorial,2024.1.5,None,2024-10-08 21h42.20.407136 +0530,
117,0,117,0,202.50776130000304,,202.4373881000065,10,202.50776130000304,202.50776130000304,0.04127749998588115,203.7968916999962,[-0.04537037037037037],[-0.3527777777777778],[1],[0],[0],[1.318623999992269],['Target'],,919050,001,2024-10-08_21h42.12.870,Visual Search Task_tutorial,2024.1.5,None,2024-10-08 21h42.20.407136 +0530,
118,0,118,0,203.85897770000156,,203.80197640000551,10,203.85897770000156,203.85897770000156,0.04029699999955483,205.26767250000557,[0.03888888888888889],[-0.37962962962962965],[1],[0],[0],[1.4258945000037784],[],,919050,001,2024-10-08_21h42.12.870,Visual Search Task_tutorial,2024.1.5,None,2024-10-08 21h42.20.407136 +0530,
119,0,119,0,205.30576770000334,,205.27250420000928,,205.30576770000334,205.30576770000334,0.01998480000474956,207.24551360000623,[-0.4009259259259259],[0.39814814814814814],[1],[0],[0],[1.95352300000377],['Target'],5,919050,001,2024-10-08_21h42.12.870,Visual Search Task_tutorial,2024.1.5,None,2024-10-08 21h42.20.407136 +0530,
120,0,120,0,207.30457380000735,,207.2500188999984,10,207.30457380000735,207.30457380000735,0.03758859999652486,208.4944625000062,[-0.09351851851851851],[0.3990740740740741],[1],[0],[0],[1.2072099999932107],['Target'],,919050,001,2024-10-08_21h42.12.870,Visual Search Task_tutorial,2024.1.5,None,2024-10-08 21h42.20.407136 +0530,
121,0,121,0,208.54767400000128,,208.49905920001038,,208.54767400000128,208.54767400000128,0.021301700006006286,209.69425300000876,[-0.2972222222222222],[0.08611111111111111],[1],[0],[0],[1.1742960999981733],['Target'],5,919050,001,2024-10-08_21h42.12.870,Visual Search Task_tutorial,2024.1.5,None,2024-10-08 21h42.20.407136 +0530,
122,0,122,0,209.75478339999972,,209.69882620000863,10,209.75478339999972,209.75478339999972,0.038321899992297404,210.94464680000965,[-0.06759259259259259],[0.30462962962962964],[1],[0],[0],[1.2078253000072436],['Target'],,919050,001,2024-10-08_21h42.12.870,Visual Search Task_tutorial,2024.1.5,None,2024-10-08 21h42.20.407136 +0530,
123,0,123,0,210.98288799999864,,210.9496222000016,,210.98288799999864,210.98288799999864,0.021043200002168305,212.39150900000823,[-0.2518518518518518],[0.2712962962962963],[1],[0],[0],[1.421268099991721],['Target'],5,919050,001,2024-10-08_21h42.12.870,Visual Search Task_tutorial,2024.1.5,None,2024-10-08 21h42.20.407136 +0530,
124,0,124,0,212.4316747999983,,212.39640759999747,,212.4316747999983,212.4316747999983,0.02202489999763202,213.75659040000755,[0.25277777777777777],[0.2611111111111111],[1],[0],[0],[1.3385989999951562],['Target'],5,919050,001,2024-10-08_21h42.12.870,Visual Search Task_tutorial,2024.1.5,None,2024-10-08 21h42.20.407136 +0530,
125,0,125,0,213.814486999996,,213.76121569999668,10,213.814486999996,213.814486999996,0.03700119999120943,215.10767040000064,[0.4546296296296296],[0.23055555555555557],[1],[0],[0],[1.3098341000004439],[],,919050,001,2024-10-08_21h42.12.870,Visual Search Task_tutorial,2024.1.5,None,2024-10-08 21h42.20.407136 +0530,
126,0,126,0,215.16554060000635,,215.1122139000072,10,215.16554060000635,215.16554060000635,0.03612880001310259,217.6461483000021,[0.2935185185185185],[-0.462037037037037],[1],[0],[0],[2.4980013000022154],['Target'],,919050,001,2024-10-08_21h42.12.870,Visual Search Task_tutorial,2024.1.5,None,2024-10-08 21h42.20.407136 +0530,
127,0,127,0,217.68358160000935,,217.65100670000538,,217.68358160000935,217.68358160000935,0.01988849999906961,219.0688528000028,[-0.07592592592592592],[-0.12407407407407407],[1],[0],[0],[1.3982300000061514],['Target'],5,919050,001,2024-10-08_21h42.12.870,Visual Search Task_tutorial,2024.1.5,None,2024-10-08 21h42.20.407136 +0530,
128,0,128,0,219.12737539999944,,219.073484499997,10,219.12737539999944,219.12737539999944,0.03638049999426585,220.9029959000036,[-0.42685185185185187],[0.24444444444444444],[1],[0],[0],[1.7935639999923296],['Target'],,919050,001,2024-10-08_21h42.12.870,Visual Search Task_tutorial,2024.1.5,None,2024-10-08 21h42.20.407136 +0530,
129,0,129,0,220.96596100000897,,220.9079597000091,10,220.96596100000897,220.96596100000897,0.03771499999857042,222.17439749999903,[-0.14629629629629629],[0.1824074074074074],[1],[0],[0],[1.2291564000042854],['Target'],,919050,001,2024-10-08_21h42.12.870,Visual Search Task_tutorial,2024.1.5,None,2024-10-08 21h42.20.407136 +0530,
130,0,130,0,222.23655729999882,,222.17934909999894,10,222.23655729999882,222.23655729999882,0.039442199995392,223.49970149999717,[-0.3972222222222222],[0.29259259259259257],[1],[0],[0],[1.2814638999989256],['Target'],,919050,001,2024-10-08_21h42.12.870,Visual Search Task_tutorial,2024.1.5,None,2024-10-08 21h42.20.407136 +0530,
131,0,131,0,223.53893660000176,,223.504262500006,,223.53893660000176,223.53893660000176,0.02092409999750089,225.82875200000126,[0.39444444444444443],[-0.3537037037037037],[1],[0],[0],[2.3039713999896776],[],5,919050,001,2024-10-08_21h42.12.870,Visual Search Task_tutorial,2024.1.5,None,2024-10-08 21h42.20.407136 +0530,
132,0,132,0,225.89445410000917,,225.8334590000013,10,225.89445410000917,225.89445410000917,0.04287940000358503,227.7645029999985,[0.044444444444444446],[0.40555555555555556],[1],[0],[0],[1.8885434999974677],['Target'],,919050,001,2024-10-08_21h42.12.870,Visual Search Task_tutorial,2024.1.5,None,2024-10-08 21h42.20.407136 +0530,
133,0,133,0,227.8252291000099,,227.76960070000496,10,227.8252291000099,227.8252291000099,0.037954800005536526,229.2060238999984,[0.12129629629629629],[0.3675925925925926],[1],[0],[0],[1.3987407000095118],['Target'],,919050,001,2024-10-08_21h42.12.870,Visual Search Task_tutorial,2024.1.5,None,2024-10-08 21h42.20.407136 +0530,
134,0,134,0,229.2432392000046,,229.21078330000455,,229.2432392000046,229.2432392000046,0.02018110000062734,230.60794549999991,[0.5111111111111111],[0.44814814814814813],[1],[0],[0],[1.3773876000050223],[],5,919050,001,2024-10-08_21h42.12.870,Visual Search Task_tutorial,2024.1.5,None,2024-10-08 21h42.20.407136 +0530,
135,0,135,0,230.66770890000043,,230.61262450000504,10,230.66770890000043,230.66770890000043,0.03911940001125913,232.7778554999968,[0.013888888888888888],[-0.3277777777777778],[1],[0],[0],[2.1265208999975584],[],,919050,001,2024-10-08_21h42.12.870,Visual Search Task_tutorial,2024.1.5,None,2024-10-08 21h42.20.407136 +0530,
136,0,136,0,232.83542940000189,,232.7825531999988,10,232.83542940000189,232.83542940000189,0.036472699997830205,234.74476280000817,[-0.4898148148148148],[-0.28888888888888886],[1],[0],[0],[1.9261587000073632],['Target'],,919050,001,2024-10-08_21h42.12.870,Visual Search Task_tutorial,2024.1.5,None,2024-10-08 21h42.20.407136 +0530,
137,0,137,0,234.78168070000538,,234.74943940000958,,234.78168070000538,234.78168070000538,0.02076699999452103,236.90175770000496,[0.35833333333333334],[0.4638888888888889],[1],[0],[0],[2.131938899998204],['Target'],5,919050,001,2024-10-08_21h42.12.870,Visual Search Task_tutorial,2024.1.5,None,2024-10-08 21h42.20.407136 +0530,
138,0,138,0,236.96454240000458,,236.90668880000885,10,236.96454240000458,236.96454240000458,0.04092710000986699,238.35379910000484,[-0.06388888888888888],[0.041666666666666664],[1],[0],[0],[1.4065899999986868],['Target'],,919050,001,2024-10-08_21h42.12.870,Visual Search Task_tutorial,2024.1.5,None,2024-10-08 21h42.20.407136 +0530,
139,0,139,0,238.39237960000173,,238.35839219999616,,238.39237960000173,238.39237960000173,0.02055109999491833,239.83400139999867,[0.04537037037037037],[-0.07777777777777778],[1],[0],[0],[1.4554302000033204],['Target'],5,919050,001,2024-10-08_21h42.12.870,Visual Search Task_tutorial,2024.1.5,None,2024-10-08 21h42.20.407136 +0530,
140,0,140,0,239.8955183000071,,239.83876830000372,10,239.8955183000071,239.8955183000071,0.03997059998800978,241.4100674000074,[-0.04814814814814815],[-0.2962962962962963],[1],[0],[0],[1.5317439000064041],['Target'],,919050,001,2024-10-08_21h42.12.870,Visual Search Task_tutorial,2024.1.5,None,2024-10-08 21h42.20.407136 +0530,
141,0,141,0,241.46902810000756,,241.4148314000049,10,241.46902810000756,241.46902810000756,0.037123100002645515,243.07967330000247,[-0.3962962962962963],[-0.3611111111111111],[1],[0],[0],[1.6281197000062093],['Target'],,919050,001,2024-10-08_21h42.12.870,Visual Search Task_tutorial,2024.1.5,None,2024-10-08 21h42.20.407136 +0530,
142,0,142,0,243.11678589999792,,243.08444130000134,,243.11678589999792,243.11678589999792,0.020076399989193305,244.4456113000051,[-0.2324074074074074],[-0.06388888888888888],[1],[0],[0],[1.3414959000074305],['Target'],5,919050,001,2024-10-08_21h42.12.870,Visual Search Task_tutorial,2024.1.5,None,2024-10-08 21h42.20.407136 +0530,
143,0,143,0,244.5086011000094,,244.45043969999824,10,244.5086011000094,244.5086011000094,0.039891099993838,246.01325360000192,[-0.2518518518518518],[0.38055555555555554],[1],[0],[0],[1.5234218999976292],['Target'],,919050,001,2024-10-08_21h42.12.870,Visual Search Task_tutorial,2024.1.5,None,2024-10-08 21h42.20.407136 +0530,
144,0,144,0,246.05027730000438,,246.01783799999976,,246.05027730000438,246.05027730000438,0.020059100002981722,248.24234130000696,[0.44814814814814813],[0.13518518518518519],[1],[0],[0],[2.204625999991549],['Target'],5,919050,001,2024-10-08_21h42.12.870,Visual Search Task_tutorial,2024.1.5,None,2024-10-08 21h42.20.407136 +0530,
145,0,145,0,248.30099479999626,,248.24731770000653,10,248.30099479999626,248.30099479999626,0.03716050001094118,250.66078770000604,[0.08148148148148149],[-0.4305555555555556],[1],[0],[0],[2.376686100004008],['Target'],,919050,001,2024-10-08_21h42.12.870,Visual Search Task_tutorial,2024.1.5,None,2024-10-08 21h42.20.407136 +0530,
146,0,146,0,250.69660999999905,,250.66551420000906,,250.69660999999905,250.69660999999905,0.01959270000224933,252.28855610000028,[0.4583333333333333],[0.03148148148148148],[1],[0],[0],[1.6037263999896822],['Target'],5,919050,001,2024-10-08_21h42.12.870,Visual Search Task_tutorial,2024.1.5,None,2024-10-08 21h42.20.407136 +0530,
147,0,147,0,252.32443140000396,,252.29315599999973,,252.32443140000396,252.32443140000396,0.01891990000149235,253.67103559999669,[-0.18333333333333332],[-0.21203703703703702],[1],[0],[0],[1.3593196999863721],['Target'],5,919050,001,2024-10-08_21h42.12.870,Visual Search Task_tutorial,2024.1.5,None,2024-10-08 21h42.20.407136 +0530,
148,0,148,0,253.73192479999852,,253.675940000001,10,253.73192479999852,253.73192479999852,0.03789750000578351,255.3097914999962,[0.4898148148148148],[-0.11574074074074074],[1],[0],[0],[1.596316499999375],['Target'],,919050,001,2024-10-08_21h42.12.870,Visual Search Task_tutorial,2024.1.5,None,2024-10-08 21h42.20.407136 +0530,
149,0,149,0,255.34664200000407,,255.31488489999902,,255.34664200000407,255.34664200000407,0.019744099990930408,257.28318990000116,[0.008333333333333333],[-0.08055555555555556],[1],[0],[0],[1.9490043999976479],['Target'],5,919050,001,2024-10-08_21h42.12.870,Visual Search Task_tutorial,2024.1.5,None,2024-10-08 21h42.20.407136 +0530,
150,0,150,0,257.34290289999626,,257.2878294999973,10,257.34290289999626,257.34290289999626,0.037897300004260615,259.17140059999656,[0.3416666666666667],[0.3851851851851852],[1],[0],[0],[1.8458011000038823],['Target'],,919050,001,2024-10-08_21h42.12.870,Visual Search Task_tutorial,2024.1.5,None,2024-10-08 21h42.20.407136 +0530,
151,0,151,0,259.2072466999962,,259.17599560000235,,259.2072466999962,259.2072466999962,0.019369100002222694,260.846944799996,[0.4888888888888889],[-0.27314814814814814],[1],[0],[0],[1.6518790000118315],['Target'],5,919050,001,2024-10-08_21h42.12.870,Visual Search Task_tutorial,2024.1.5,None,2024-10-08 21h42.20.407136 +0530,
152,0,152,0,260.8843520000082,,260.851943200003,,260.8843520000082,260.8843520000082,0.020225799991749227,262.23000039999897,[0.36944444444444446],[0.1962962962962963],[1],[0],[0],[1.3582114000018919],[],5,919050,001,2024-10-08_21h42.12.870,Visual Search Task_tutorial,2024.1.5,None,2024-10-08 21h42.20.407136 +0530,
153,0,153,0,262.26776050000626,,262.2350105000078,,262.26776050000626,262.26776050000626,0.020877399991150014,263.6440081000037,[-0.13333333333333333],[-0.025925925925925925],[1],[0],[0],[1.3886485999973956],['Target'],5,919050,001,2024-10-08_21h42.12.870,Visual Search Task_tutorial,2024.1.5,None,2024-10-08 21h42.20.407136 +0530,
154,0,154,0,263.7058517999976,,263.64864600000146,10,263.7058517999976,263.7058517999976,0.039387500000884756,265.05701849999605,[0.1425925925925926],[0.1398148148148148],[1],[0],[0],[1.3692842000018572],['Target'],,919050,001,2024-10-08_21h42.12.870,Visual Search Task_tutorial,2024.1.5,None,2024-10-08 21h42.20.407136 +0530,
155,0,155,0,265.1179037999973,,265.06161129999964,10,265.1179037999973,265.1179037999973,0.039080400005332194,266.8206743000046,[-0.0787037037037037],[-0.004629629629629629],[1],[0],[0],[1.7203794000088237],['Target'],,919050,001,2024-10-08_21h42.12.870,Visual Search Task_tutorial,2024.1.5,None,2024-10-08 21h42.20.407136 +0530,
156,0,156,0,266.8787458000006,,266.8252569000033,10,266.8787458000006,266.8787458000006,0.03712280000036117,268.3527241999982,[0.001851851851851852],[0.06111111111111111],[1],[0],[0],[1.4907807999989018],[],,919050,001,2024-10-08_21h42.12.870,Visual Search Task_tutorial,2024.1.5,None,2024-10-08 21h42.20.407136 +0530,
157,0,157,0,268.38814229999844,,268.35749500000384,,268.38814229999844,268.38814229999844,0.01894539999193512,270.70527630001015,[-0.2222222222222222],[0.041666666666666664],[1],[0],[0],[2.3292269999947166],['Target'],5,919050,001,2024-10-08_21h42.12.870,Visual Search Task_tutorial,2024.1.5,None,2024-10-08 21h42.20.407136 +0530,
158,0,158,0,270.74370890000137,,270.70985400000063,,270.74370890000137,270.74370890000137,0.02051650000794325,272.76938070000324,[0.14074074074074075],[0.35555555555555557],[1],[0],[0],[2.039206000001286],['Target'],5,919050,001,2024-10-08_21h42.12.870,Visual Search Task_tutorial,2024.1.5,None,2024-10-08 21h42.20.407136 +0530,
159,0,159,0,272.8059423000086,,272.77433260000544,,272.8059423000086,272.8059423000086,0.019463999997242354,274.10138500000176,[0.18055555555555555],[0.18981481481481483],[1],[0],[0],[1.3081010000023525],['Target'],5,919050,001,2024-10-08_21h42.12.870,Visual Search Task_tutorial,2024.1.5,None,2024-10-08 21h42.20.407136 +0530,
160,0,160,0,274.1618640000088,,274.10609240000485,10,274.1618640000088,274.1618640000088,0.03816229999938514,275.551155299996,[0.09166666666666666],[-0.12962962962962962],[1],[0],[0],[1.4072489999962272],['Target'],,919050,001,2024-10-08_21h42.12.870,Visual Search Task_tutorial,2024.1.5,None,2024-10-08 21h42.20.407136 +0530,
161,0,161,0,275.58918120000453,,275.5558966999961,,275.58918120000453,275.58918120000453,0.021014700003433973,276.8153849000082,[0.028703703703703703],[0.13240740740740742],[1],[0],[0],[1.238889800006291],['Target'],5,919050,001,2024-10-08_21h42.12.870,Visual Search Task_tutorial,2024.1.5,None,2024-10-08 21h42.20.407136 +0530,
162,0,162,0,276.87815040000714,,276.8203193000081,10,276.87815040000714,276.87815040000714,0.04001029999926686,278.21469039999647,[-0.2953703703703704],[0.3314814814814815],[1],[0],[0],[1.3547097999980906],['Target'],,919050,001,2024-10-08_21h42.12.870,Visual Search Task_tutorial,2024.1.5,None,2024-10-08 21h42.20.407136 +0530,
163,0,163,0,278.2749960000074,,278.21966780000366,10,278.2749960000074,278.2749960000074,0.03911789999983739,280.3554942000046,[0.07314814814814814],[-0.43796296296296294],[1],[0],[0],[2.0971087999932934],['Target'],,919050,001,2024-10-08_21h42.12.870,Visual Search Task_tutorial,2024.1.5,None,2024-10-08 21h42.20.407136 +0530,
164,0,164,0,280.3928225999989,,280.36022129999765,,280.3928225999989,280.3928225999989,0.020774000004166737,282.2949812000006,[0.487962962962963],[-0.08518518518518518],[1],[0],[0],[1.9143817000003764],[],5,919050,001,2024-10-08_21h42.12.870,Visual Search Task_tutorial,2024.1.5,None,2024-10-08 21h42.20.407136 +0530,
165,0,165,0,282.3341733999987,,282.29977890000737,,282.3341733999987,282.3341733999987,0.021202799995080568,284.19214260000444,[-0.39444444444444443],[-0.4564814814814815],[1],[0],[0],[1.8715286999940872],['Target'],5,919050,001,2024-10-08_21h42.12.870,Visual Search Task_tutorial,2024.1.5,None,2024-10-08 21h42.20.407136 +0530,
166,0,166,0,284.25329249999777,,284.1968751000095,10,284.25329249999777,284.25329249999777,0.03821610000159126,286.73482130000775,[-0.01574074074074074],[-0.38333333333333336],[1],[0],[0],[2.5000869000068633],['Target'],,919050,001,2024-10-08_21h42.12.870,Visual Search Task_tutorial,2024.1.5,None,2024-10-08 21h42.20.407136 +0530,
167,0,167,0,286.7733411000081,,286.73967779999657,,286.7733411000081,286.7733411000081,0.02117809999617748,288.6060837999976,[0.23796296296296296],[0.10740740740740741],[1],[0],[0],[1.8455645999929402],[],5,919050,001,2024-10-08_21h42.12.870,Visual Search Task_tutorial,2024.1.5,None,2024-10-08 21h42.20.407136 +0530,
168,0,168,0,288.64424380000855,,288.6109320999967,,288.64424380000855,288.64424380000855,0.02035500000056345,290.1031578999973,[-0.02962962962962963],[0.12777777777777777],[1],[0],[0],[1.4722232000058284],['Target'],5,919050,001,2024-10-08_21h42.12.870,Visual Search Task_tutorial,2024.1.5,None,2024-10-08 21h42.20.407136 +0530,
169,0,169,0,290.1633858999994,,290.10794300001,10,290.1633858999994,290.1633858999994,0.036639400001149625,291.702833000003,[0.3537037037037037],[0.06388888888888888],[1],[0],[0],[1.5586466000095243],[],,919050,001,2024-10-08_21h42.12.870,Visual Search Task_tutorial,2024.1.5,None,2024-10-08 21h42.20.407136 +0530,
170,0,170,0,291.7652931000048,,291.70740579999983,10,291.7652931000048,291.7652931000048,0.04132760000356939,293.4650988000067,[-0.05925925925925926],[0.14074074074074075],[1],[0],[0],[1.7167519000067841],['Target'],,919050,001,2024-10-08_21h42.12.870,Visual Search Task_tutorial,2024.1.5,None,2024-10-08 21h42.20.407136 +0530,
171,0,171,0,293.5025167999993,,293.46971970000595,,293.5025167999993,293.5025167999993,0.0207351999997627,294.93284570000833,[-0.21388888888888888],[0.4398148148148148],[1],[0],[0],[1.4427489999943646],['Target'],5,919050,001,2024-10-08_21h42.12.870,Visual Search Task_tutorial,2024.1.5,None,2024-10-08 21h42.20.407136 +0530,
172,0,172,0,294.9706079000025,,294.93757700000424,,294.9706079000025,294.9706079000025,0.020300499993027188,296.7641413000092,[0.2657407407407407],[-0.26851851851851855],[1],[0],[0],[1.8065960999956587],['Target'],5,919050,001,2024-10-08_21h42.12.870,Visual Search Task_tutorial,2024.1.5,None,2024-10-08 21h42.20.407136 +0530,
173,0,173,0,296.7998365000094,,296.76868110000214,,296.7998365000094,296.7998365000094,0.018821899997419678,298.3621475999971,[-0.21851851851851853],[0.08148148148148149],[1],[0],[0],[1.5750878999970155],['Target'],5,919050,001,2024-10-08_21h42.12.870,Visual Search Task_tutorial,2024.1.5,None,2024-10-08 21h42.20.407136 +0530,
174,0,174,0,298.39953760000935,,298.3668075000023,,298.39953760000935,298.39953760000935,0.020239899997250177,300.09408560000884,[0.4861111111111111],[-0.20833333333333334],[1],[0],[0],[1.7074586999951862],['Target'],5,919050,001,2024-10-08_21h42.12.870,Visual Search Task_tutorial,2024.1.5,None,2024-10-08 21h42.20.407136 +0530,
175,0,175,0,300.15621929999907,,300.0988986000011,10,300.15621929999907,300.15621929999907,0.039421800000127405,301.9031593999971,[-0.2814814814814815],[-0.22592592592592592],[1],[0],[0],[1.7652402000094298],['Target'],,919050,001,2024-10-08_21h42.12.870,Visual Search Task_tutorial,2024.1.5,None,2024-10-08 21h42.20.407136 +0530,
176,0,176,0,301.93875370000023,,301.90777069999604,,301.93875370000023,301.93875370000023,0.019183500000508502,303.90889679999964,[-0.4074074074074074],[0.4675925925925926],[1],[0],[0],[1.9821704999922076],['Target'],5,919050,001,2024-10-08_21h42.12.870,Visual Search Task_tutorial,2024.1.5,None,2024-10-08 21h42.20.407136 +0530,
177,0,177,0,303.9469960999995,,303.9136220000073,,303.9469960999995,303.9469960999995,0.01964530000986997,305.7891640000016,[0.20555555555555555],[0.2861111111111111],[1],[0],[0],[1.8562872000038624],['Target'],5,919050,001,2024-10-08_21h42.12.870,Visual Search Task_tutorial,2024.1.5,None,2024-10-08 21h42.20.407136 +0530,
178,0,178,0,305.8536819000001,,305.7950806000008,10,305.8536819000001,305.8536819000001,0.04037550000066403,307.01919170000474,[0.38981481481481484],[0.34074074074074073],[1],[0],[0],[1.1845871999976225],['Target'],,919050,001,2024-10-08_21h42.12.870,Visual Search Task_tutorial,2024.1.5,None,2024-10-08 21h42.20.407136 +0530,
179,0,179,0,307.0575988000055,,307.02399650000734,,307.0575988000055,307.0575988000055,0.020888500002911314,308.48775630000455,[-0.22314814814814815],[-0.09907407407407408],[1],[0],[0],[1.4432444999984],['Target'],5,919050,001,2024-10-08_21h42.12.870,Visual Search Task_tutorial,2024.1.5,None,2024-10-08 21h42.20.407136 +0530,
180,0,180,0,308.54738430000725,,308.4923073999962,10,308.54738430000725,308.54738430000725,0.03817309999431018,309.84663539999747,[-0.3925925925925926],[-0.39814814814814814],[1],[0],[0],[1.316164799995022],[],,919050,001,2024-10-08_21h42.12.870,Visual Search Task_tutorial,2024.1.5,None,2024-10-08 21h42.20.407136 +0530,
181,0,181,0,309.9052717000013,,309.8514794000075,10,309.9052717000013,309.9052717000013,0.037529799999902025,311.14366880001035,[-0.4703703703703704],[-0.19907407407407407],[1],[0],[0],[1.2550153999909526],['Target'],,919050,001,2024-10-08_21h42.12.870,Visual Search Task_tutorial,2024.1.5,None,2024-10-08 21h42.20.407136 +0530,
182,0,182,0,311.20155939999677,,311.14829800000007,10,311.20155939999677,311.20155939999677,0.03731309999420773,312.917978700003,[-0.3472222222222222],[-0.16018518518518518],[1],[0],[0],[1.7327369999984512],[],,919050,001,2024-10-08_21h42.12.870,Visual Search Task_tutorial,2024.1.5,None,2024-10-08 21h42.20.407136 +0530,
183,0,183,0,312.9789746000024,,312.9224755000032,10,312.9789746000024,312.9789746000024,0.038572699995711446,314.3286911000032,[-0.34814814814814815],[-0.032407407407407406],[1],[0],[0],[1.3679932999948505],['Target'],,919050,001,2024-10-08_21h42.12.870,Visual Search Task_tutorial,2024.1.5,None,2024-10-08 21h42.20.407136 +0530,
184,0,184,0,314.36797990000923,,314.33317860000534,,314.36797990000923,314.36797990000923,0.021343799991882406,315.7142162000091,[0.027777777777777776],[-0.18055555555555555],[1],[0],[0],[1.3599619000015082],[],5,919050,001,2024-10-08_21h42.12.870,Visual Search Task_tutorial,2024.1.5,None,2024-10-08 21h42.20.407136 +0530,
185,0,185,0,315.75224940000044,,315.71887500000594,,315.75224940000044,315.75224940000044,0.020116100000450388,317.1662387999968,[-0.15833333333333333],[0.22314814814814815],[1],[0],[0],[1.4276239000028],['Target'],5,919050,001,2024-10-08_21h42.12.870,Visual Search Task_tutorial,2024.1.5,None,2024-10-08 21h42.20.407136 +0530,
186,0,186,0,317.2104349000001,,317.1717100000096,,317.2104349000001,317.2104349000001,0.024417099994025193,319.3109600000025,[-0.021296296296296296],[-0.47962962962962963],[1],[0],[0],[2.115205399997649],['Target'],5,919050,001,2024-10-08_21h42.12.870,Visual Search Task_tutorial,2024.1.5,None,2024-10-08 21h42.20.407136 +0530,
187,0,187,0,319.34744120000687,,319.31559630000265,,319.34744120000687,319.34744120000687,0.019932200011680834,320.60977960001037,[0.38425925925925924],[-0.1361111111111111],[1],[0],[0],[1.27464799999143],['Target'],5,919050,001,2024-10-08_21h42.12.870,Visual Search Task_tutorial,2024.1.5,None,2024-10-08 21h42.20.407136 +0530,
188,0,188,0,320.66894760000287,,320.61434280000685,10,320.66894760000287,320.66894760000287,0.03760030001285486,322.2415353999968,[0.3537037037037037],[0.11574074074074074],[1],[0],[0],[1.5898988000117242],['Target'],,919050,001,2024-10-08_21h42.12.870,Visual Search Task_tutorial,2024.1.5,None,2024-10-08 21h42.20.407136 +0530,
189,0,189,0,322.27998600000865,,322.24635830000625,,322.27998600000865,322.27998600000865,0.02006380000966601,324.0723410000064,[0.24166666666666667],[-0.4601851851851852],[1],[0],[0],[1.806328200007556],['Target'],5,919050,001,2024-10-08_21h42.12.870,Visual Search Task_tutorial,2024.1.5,None,2024-10-08 21h42.20.407136 +0530,
190,0,190,0,324.13408699999854,,324.0777054000064,10,324.13408699999854,324.13408699999854,0.03855680000560824,325.4630974000029,[0.018518518518518517],[0.01574074074074074],[1],[0],[0],[1.3472845000069356],['Target'],,919050,001,2024-10-08_21h42.12.870,Visual Search Task_tutorial,2024.1.5,None,2024-10-08 21h42.20.407136 +0530,
191,0,191,0,325.5228253000096,,325.4676341000013,10,325.5228253000096,325.5228253000096,0.03839819999120664,327.42756680000457,[-0.40370370370370373],[-0.39444444444444443],[1],[0],[0],[1.9218769999861252],[],,919050,001,2024-10-08_21h42.12.870,Visual Search Task_tutorial,2024.1.5,None,2024-10-08 21h42.20.407136 +0530,
192,0,192,0,327.48870519999764,,327.43219710000267,10,327.48870519999764,327.48870519999764,0.03859070000180509,328.8059032000019,[0.17222222222222222],[-0.1361111111111111],[1],[0],[0],[1.3355604000098538],['Target'],,919050,001,2024-10-08_21h42.12.870,Visual Search Task_tutorial,2024.1.5,None,2024-10-08 21h42.20.407136 +0530,
193,0,193,0,328.86764080000285,,328.81066909999936,10,328.86764080000285,328.86764080000285,0.039699500004644506,330.11252960001,[0.3351851851851852],[0.049074074074074076],[1],[0],[0],[1.2626046999939717],[],,919050,001,2024-10-08_21h42.12.870,Visual Search Task_tutorial,2024.1.5,None,2024-10-08 21h42.20.407136 +0530,
194,0,194,0,330.149192900004,,330.11804159999883,,330.149192900004,330.149192900004,0.019775599997956306,331.46661410000524,[-0.18888888888888888],[-0.20462962962962963],[1],[0],[0],[1.329669400001876],['Target'],5,919050,001,2024-10-08_21h42.12.870,Visual Search Task_tutorial,2024.1.5,None,2024-10-08 21h42.20.407136 +0530,
195,0,195,0,331.50368320000416,,331.471272099996,,331.50368320000416,331.50368320000416,0.02013720000104513,333.04730910000217,[-0.10833333333333334],[0.20277777777777778],[1],[0],[0],[1.5562309000088135],['Target'],5,919050,001,2024-10-08_21h42.12.870,Visual Search Task_tutorial,2024.1.5,None,2024-10-08 21h42.20.407136 +0530,
196,0,196,0,333.08411740000884,,333.05188640000415,,333.08411740000884,333.08411740000884,0.019161899996106513,334.17942430000403,[-0.16574074074074074],[0.25277777777777777],[1],[0],[0],[1.1087450000050012],[],5,919050,001,2024-10-08_21h42.12.870,Visual Search Task_tutorial,2024.1.5,None,2024-10-08 21h42.20.407136 +0530,
197,0,197,0,334.2451207999984,,334.1843924999994,10,334.2451207999984,334.2451207999984,0.043376199988415465,335.22586800000863,[-0.18333333333333332],[0.2824074074074074],[1],[0],[0],[0.9985071999981301],['Target'],,919050,001,2024-10-08_21h42.12.870,Visual Search Task_tutorial,2024.1.5,None,2024-10-08 21h42.20.407136 +0530,
198,0,198,0,335.2647597000032,,335.23045990000537,,335.2647597000032,335.2647597000032,0.021926100002019666,336.9114697000041,[-0.037037037037037035],[0.31574074074074077],[1],[0],[0],[1.6593452999950387],['Target'],5,919050,001,2024-10-08_21h42.12.870,Visual Search Task_tutorial,2024.1.5,None,2024-10-08 21h42.20.407136 +0530,
199,0,199,0,336.97327050000604,,336.91614319999644,10,336.97327050000604,336.97327050000604,0.039830499998060986,338.84983490000013,[0.46944444444444444],[-0.09814814814814815],[1],[0],[0],[1.8942632999969646],['Target'],,919050,001,2024-10-08_21h42.12.870,Visual Search Task_tutorial,2024.1.5,None,2024-10-08 21h42.20.407136 +0530,
